"Time (s)","Acceleration x (m/s^2)","Acceleration y (m/s^2)","Acceleration z (m/s^2)"
1.273865000E-2,-6.125625968E-1,9.555138588E0,-1.890329868E-1
1.498315600E-2,-6.370890141E-1,9.564710617E0,-1.322034448E-1
1.722823200E-2,-6.705885530E-1,9.583852768E0,-9.391828626E-2
1.946392900E-2,-6.903293133E-1,9.565308571E0,-7.058826834E-2
2.170099000E-2,-7.094719410E-1,9.555737495E0,-5.144568533E-2
2.393701300E-2,-7.244270444E-1,9.555737495E0,-2.811566554E-2
2.617267000E-2,-7.627122402E-1,9.565906525E0,2.871387079E-2
2.840851000E-2,-7.435696125E-1,9.570094109E0,4.366901144E-2
3.064459400E-2,-7.393822074E-1,9.560523033E0,7.716853172E-2
3.288165400E-2,-7.441678643E-1,9.570094109E0,1.148554832E-1
3.511877600E-2,-7.256234884E-1,9.559925079E0,1.531406492E-1
3.735583600E-2,-7.112665176E-1,9.535996437E0,1.441675574E-1
3.959240800E-2,-6.927221417E-1,9.521040916E0,1.824527234E-1
4.182946900E-2,-6.311069727E-1,9.515059471E0,2.021935135E-1
4.406689600E-2,-6.311069727E-1,9.519845009E0,2.111666054E-1
4.630255300E-2,-5.880361795E-1,9.533603668E0,2.452643216E-1
4.853936900E-2,-5.455635786E-1,9.479764938E0,2.979064286E-1
5.077588000E-2,-4.833501875E-1,9.488140106E0,3.128615618E-1
5.301275800E-2,-4.648058116E-1,9.502496719E0,3.607180119E-1
5.524957400E-2,-4.121637046E-1,9.482157707E0,3.804588020E-1
5.748669500E-2,-3.978067636E-1,9.496515274E0,3.900300860E-1
5.972479400E-2,-3.643072546E-1,9.495916367E0,3.954139352E-1
6.196130500E-2,-3.744767308E-1,9.495916367E0,4.570291340E-1
6.419690100E-2,-3.505485058E-1,9.500103951E0,4.713860750E-1
6.643341200E-2,-3.314059377E-1,9.499505997E0,4.905286431E-1
6.867016700E-2,-3.559323549E-1,9.504889488E0,5.240281820E-1
7.090704500E-2,-3.559323549E-1,9.504291534E0,5.623133183E-1
7.314386100E-2,-3.702892959E-1,9.519247055E0,5.617151260E-1
7.538073900E-2,-3.798605800E-1,9.533005714E0,6.047859192E-1
7.761810400E-2,-3.990031779E-1,9.528818130E0,6.000002623E-1
7.985559200E-2,-4.229314029E-1,9.547960281E0,6.137589812E-1
8.209118800E-2,-4.468596280E-1,9.553344727E0,6.376872063E-1
8.432794300E-2,-4.510470629E-1,9.567701340E0,6.185446382E-1
8.656274600E-2,-4.755735099E-1,9.573084831E0,6.370890141E-1
8.879193200E-2,-4.893322289E-1,9.592227936E0,6.179464459E-1
9.102783300E-2,-5.324030519E-1,9.602396965E0,6.029912829E-1
9.327472100E-2,-5.557330847E-1,9.617352486E0,5.838487148E-1
9.551379500E-2,-5.796613097E-1,9.613164902E0,5.503492355E-1
9.775213800E-2,-5.988038778E-1,9.608379364E0,5.312066078E-1
9.998523100E-2,-6.269195080E-1,9.628120422E0,4.971089065E-1
1.022219860E-1,-6.556333899E-1,9.623932838E0,4.827519655E-1
1.044585590E-1,-6.502495408E-1,9.623932838E0,4.492524564E-1
1.066956800E-1,-6.550351977E-1,9.629316330E0,4.115654826E-1
1.089325570E-1,-6.640082598E-1,9.629316330E0,3.972085714E-1
1.111694960E-1,-6.735795736E-1,9.644271851E0,3.684946895E-1
1.134060680E-1,-6.687939167E-1,9.629914284E0,3.493520916E-1
1.156404430E-1,-6.729813814E-1,9.653842926E0,3.637090325E-1
1.178666400E-1,-6.681957245E-1,9.663414001E0,3.397808075E-1
1.201160290E-1,-6.675975323E-1,9.687342644E0,3.158525825E-1
1.223526020E-1,-6.580262184E-1,9.677771568E0,3.254238665E-1
1.245928970E-1,-6.628118753E-1,9.687342644E0,3.254238665E-1
1.268268440E-1,-6.388836503E-1,9.696315765E0,3.302095234E-1
1.290638440E-1,-6.532405615E-1,9.701101303E0,3.302095234E-1
1.313013930E-1,-6.293123364E-1,9.691530228E0,3.158525825E-1
1.335379040E-1,-6.334998012E-1,9.710672379E0,3.206382394E-1
1.357725840E-1,-6.197410822E-1,9.719645500E0,3.589234054E-1
1.380056780E-1,-6.143572330E-1,9.719645500E0,3.397808075E-1
1.402468890E-1,-6.149554253E-1,9.710074425E0,3.637090325E-1
1.424839490E-1,-6.101697683E-1,9.719645500E0,3.780659735E-1
1.447218640E-1,-6.586244106E-1,9.710672379E0,4.109672904E-1
1.469573990E-1,-6.538388133E-1,9.714859962E0,4.636093974E-1
1.491947030E-1,-6.729813814E-1,9.725028992E0,4.923232496E-1
1.514321910E-1,-6.741777658E-1,9.705288887E0,5.491527915E-1
1.536649790E-1,-6.837490797E-1,9.710074425E0,5.587241054E-1
1.558930680E-1,-6.879364848E-1,9.724431038E0,5.730810165E-1
1.581409320E-1,-6.981059909E-1,9.724431038E0,6.107679605E-1
1.603782970E-1,-7.076773047E-1,9.729216576E0,6.442674994E-1
1.626179830E-1,-7.034898400E-1,9.734002113E0,6.825526357E-1
1.648519910E-1,-7.034898400E-1,9.724431038E0,6.969096065E-1
1.670889290E-1,-6.939185858E-1,9.733404160E0,7.112665176E-1
1.693262340E-1,-6.945167780E-1,9.723833084E0,7.351947427E-1
1.715620740E-1,-6.945167780E-1,9.738189697E0,7.591229677E-1
1.737988290E-1,-6.897311211E-1,9.733404160E0,7.824530005E-1
1.760352190E-1,-6.945167780E-1,9.738189697E0,7.824530005E-1
1.782722790E-1,-6.849454641E-1,9.742377281E0,8.111668825E-1
1.805091570E-1,-6.897311211E-1,9.742377281E0,8.207381964E-1
1.827454850E-1,-6.801598072E-1,9.751948357E0,8.494520187E-1
1.849800430E-1,-6.855437160E-1,9.751948357E0,8.542376757E-1
1.872202770E-1,-6.855437160E-1,9.751948357E0,8.542376757E-1
1.894560560E-1,-6.610172391E-1,9.756135941E0,8.494520187E-1
1.916937260E-1,-6.610172391E-1,9.760921478E0,8.356932998E-1
1.939297500E-1,-6.610172391E-1,9.766305923E0,8.213363886E-1
1.961663830E-1,-6.466603279E-1,9.770493507E0,8.261220455E-1
1.984034440E-1,-6.323033571E-1,9.770493507E0,8.213363886E-1
2.006404430E-1,-6.317051649E-1,9.760921478E0,7.782655358E-1
2.028782970E-1,-6.167500615E-1,9.770493507E0,7.405785918E-1
2.051146250E-1,-6.317051649E-1,9.742377281E0,7.357929349E-1
2.073506480E-1,-6.029912829E-1,9.760921478E0,7.453642488E-1
2.095869160E-1,-5.970092416E-1,9.789635658E0,7.070791125E-1
2.118235490E-1,-6.065805554E-1,9.775279045E0,6.687939167E-1
2.140605480E-1,-5.874379873E-1,9.784850121E0,6.789634228E-1
2.162974260E-1,-5.778666735E-1,9.808777809E0,6.789634228E-1
2.185343030E-1,-5.623133183E-1,9.841679573E0,6.502495408E-1
2.207713630E-1,-5.485545993E-1,9.827322960E0,6.358926296E-1
2.230088510E-1,-5.335994363E-1,9.832108498E0,6.412764788E-1
2.252444470E-1,-5.335994363E-1,9.856036186E0,6.364908218E-1
2.274812630E-1,-5.240281820E-1,9.865009308E0,6.460621357E-1
2.297178360E-1,-5.234299302E-1,9.893723488E0,6.502495408E-1
2.319547740E-1,-5.335994363E-1,9.865608215E0,6.454638839E-1
2.341909800E-1,-5.527420044E-1,9.860821724E0,6.502495408E-1
2.364283460E-1,-5.240281820E-1,9.869794846E0,6.598208547E-1
2.386656510E-1,-5.335994363E-1,9.874580383E0,6.693921089E-1
2.409033210E-1,-5.335994363E-1,9.856036186E0,6.598208547E-1
2.431387950E-1,-5.629115105E-1,9.851250648E0,6.741777658E-1
2.453755510E-1,-5.772684813E-1,9.837491989E0,6.741777658E-1
2.476121230E-1,-5.820540786E-1,9.832706451E0,6.885347366E-1
2.498491830E-1,-5.826523304E-1,9.822537422E0,7.166503668E-1
2.520857560E-1,-5.922235847E-1,9.818349838E0,7.214360237E-1
2.543225720E-1,-5.832505226E-1,9.798608780E0,7.405785918E-1
2.565596930E-1,-5.880361795E-1,9.789037704E0,7.501499057E-1
2.587974870E-1,-5.832505226E-1,9.793823242E0,7.645068169E-1
2.610330820E-1,-5.886343718E-1,9.784252167E0,7.788637877E-1
2.632698990E-1,-5.790630579E-1,9.784252167E0,7.788637877E-1
2.655064100E-1,-5.982056856E-1,9.779465675E0,7.740781307E-1
2.677435320E-1,-5.934200287E-1,9.760323524E0,7.692924738E-1
2.699802260E-1,-6.029912829E-1,9.784252167E0,7.836494446E-1
2.722161880E-1,-6.029912829E-1,9.756135941E0,7.692924738E-1
2.744522720E-1,-6.125625968E-1,9.756135941E0,7.836494446E-1
2.766917130E-1,-6.173482537E-1,9.741779327E0,7.645068169E-1
2.789273690E-1,-5.988038778E-1,9.731609344E0,7.740781307E-1
2.811643080E-1,-6.077769399E-1,9.751350403E0,7.310073376E-1
2.834003920E-1,-6.173482537E-1,9.756135941E0,7.453642488E-1
2.856375740E-1,-5.982056856E-1,9.736993790E0,7.262216806E-1
2.878746350E-1,-6.029912829E-1,9.751350403E0,7.310073376E-1
2.901111460E-1,-5.928218365E-1,9.756135941E0,7.118647099E-1
2.923479630E-1,-5.880361795E-1,9.751350403E0,6.885347366E-1
2.945854510E-1,-5.635097623E-1,9.774680138E0,6.646065116E-1
2.968213510E-1,-5.587241054E-1,9.779465675E0,6.502495408E-1
2.990581680E-1,-5.437689424E-1,9.769894600E0,6.029912829E-1
3.012946180E-1,-5.294120312E-1,9.784252167E0,5.934200287E-1
3.035320450E-1,-5.102694035E-1,9.760323524E0,5.700899959E-1
3.057683730E-1,-5.096712112E-1,9.784252167E0,5.509474277E-1
3.080052500E-1,-4.809573591E-1,9.778867722E0,5.126622319E-1
3.102422500E-1,-4.468596280E-1,9.793225288E0,4.989035130E-1
3.124800430E-1,-4.660021961E-1,9.779465675E0,4.558327198E-1
3.147154550E-1,-4.325026870E-1,9.783653259E0,4.558327198E-1
3.169507460E-1,-4.372883439E-1,9.754940033E0,4.366901219E-1
3.191818250E-1,-4.468596280E-1,9.745966911E0,3.990031779E-1
3.214257210E-1,-4.618147612E-1,9.726823807E0,3.984049559E-1
3.236629040E-1,-4.564309120E-1,9.722038269E0,3.750749528E-1
3.259012460E-1,-4.666004181E-1,9.726823807E0,3.840480447E-1
3.281366590E-1,-4.803591371E-1,9.713065147E0,3.367897868E-1
3.303740250E-1,-4.660021961E-1,9.713065147E0,3.367897868E-1
3.326096810E-1,-4.857429862E-1,9.693922997E0,3.320041299E-1
3.348465590E-1,-4.809573591E-1,9.698708534E0,3.367897868E-1
3.370833140E-1,-4.905286431E-1,9.674779892E0,3.320041299E-1
3.393201920E-1,-4.713860750E-1,9.684351921E0,3.272185028E-1
3.415570080E-1,-5.000999570E-1,9.670592308E0,3.361915946E-1
3.437940070E-1,-4.953143001E-1,9.674779892E0,3.553341627E-1
3.460318000E-1,-5.144568682E-1,9.680164337E0,3.601198196E-1
3.482681290E-1,-5.246263742E-1,9.661021233E0,3.649054468E-1
3.505039690E-1,-5.246263742E-1,9.661021233E0,3.792623878E-1
3.527404800E-1,-5.150550604E-1,9.670592308E0,3.744767308E-1
3.549770520E-1,-5.389832854E-1,9.670592308E0,4.169493318E-1
3.572139290E-1,-5.300102234E-1,9.656235695E0,3.984049559E-1
3.594509900E-1,-5.395814776E-1,9.646664619E0,4.073780477E-1
3.616878670E-1,-5.204389095E-1,9.646066666E0,4.079762697E-1
3.639249890E-1,-5.156532526E-1,9.636494637E0,4.031906128E-1
3.661624160E-1,-5.060819983E-1,9.641280174E0,4.031906128E-1
3.683980120E-1,-4.863412082E-1,9.669994354E0,3.936193287E-1
3.706348890E-1,-4.582255483E-1,9.635896683E0,3.942175210E-1
3.728716440E-1,-4.289134443E-1,9.640682220E0,3.607180119E-1
3.751085220E-1,-4.432703853E-1,9.659825325E0,3.750749528E-1
3.773453380E-1,-4.235295951E-1,9.668798447E0,3.559323549E-1
3.795820940E-1,-4.522434771E-1,9.698110580E0,3.798605800E-1
3.818191540E-1,-4.474578202E-1,9.698110580E0,3.894318938E-1
3.840564590E-1,-4.713860750E-1,9.712467194E0,3.936193287E-1
3.862922990E-1,-4.953143001E-1,9.736993790E0,4.031906128E-1
3.885291150E-1,-5.240281820E-1,9.732208252E0,4.408775866E-1
3.907657480E-1,-5.144568682E-1,9.751350403E0,4.504488707E-1
3.930027480E-1,-5.383850932E-1,9.765707016E0,4.839483798E-1
3.952393200E-1,-5.479564071E-1,9.803992271E0,5.216353536E-1
3.974762590E-1,-5.718846321E-1,9.808777809E0,5.455635786E-1
3.997137460E-1,-5.670989752E-1,9.823135376E0,5.736792088E-1
4.019480600E-1,-6.047859192E-1,9.866804123E0,5.880361795E-1
4.041746230E-1,-6.000002623E-1,9.871589661E0,6.167500615E-1
4.064230970E-1,-6.191428304E-1,9.890732765E0,6.305087805E-1
4.086599750E-1,-6.382854581E-1,9.895518303E0,6.496513486E-1
4.109000870E-1,-6.334998012E-1,9.905089378E0,6.687939167E-1
4.131339120E-1,-6.340979934E-1,9.890732765E0,6.687939167E-1
4.153706680E-1,-6.293123364E-1,9.890732765E0,6.783652306E-1
4.176084610E-1,-6.293123364E-1,9.885947227E0,6.544370055E-1
4.198416150E-1,-6.149554253E-1,9.880562782E0,6.735795736E-1
4.220671400E-1,-6.005984545E-1,9.890133858E0,6.831508875E-1
4.243169570E-1,-5.958128572E-1,9.880562782E0,6.735795736E-1
4.265540180E-1,-5.814558864E-1,9.861420631E0,6.646065116E-1
4.287944960E-1,-5.718846321E-1,9.865608215E0,6.789634228E-1
4.310279550E-1,-5.916253924E-1,9.842277527E0,6.831508875E-1
4.332644670E-1,-5.766702294E-1,9.860821724E0,6.741777658E-1
4.355015880E-1,-5.581258535E-1,9.836894035E0,6.837490797E-1
4.377393200E-1,-5.676971674E-1,9.841679573E0,6.933203340E-1
4.399749770E-1,-5.682953596E-1,9.827322960E0,7.076773047E-1
4.422117930E-1,-5.539384484E-1,9.817750931E0,7.028916478E-1
4.444483050E-1,-5.300102234E-1,9.807581902E0,7.363911867E-1
4.466853650E-1,-5.353940725E-1,9.793225288E0,7.459624410E-1
4.489190070E-1,-5.401797295E-1,9.783653259E0,7.698906660E-1
4.511469740E-1,-5.258227587E-1,9.792626381E0,7.938188910E-1
4.533955700E-1,-5.114658475E-1,9.826126099E0,8.225327730E-1
4.556334240E-1,-5.072783828E-1,9.792028427E0,8.512466550E-1
4.578721940E-1,-4.929214716E-1,9.806385040E0,8.943174481E-1
4.601061410E-1,-4.833501875E-1,9.824930191E0,9.086744189E-1
4.623425920E-1,-5.030909777E-1,9.801599503E0,9.080761671E-1
4.645794080E-1,-4.983053207E-1,9.811170578E0,9.224331379E-1
4.668161630E-1,-5.030909777E-1,9.811170578E0,9.320043921E-1
4.690527360E-1,-5.222335458E-1,9.815957069E0,9.750752449E-1
4.712871720E-1,-5.078766346E-1,9.810572624E0,9.750752449E-1
4.735138560E-1,-5.078766346E-1,9.810572624E0,9.750752449E-1
4.757521370E-1,-5.030909777E-1,9.796216011E0,9.559326172E-1
4.780003670E-1,-5.222335458E-1,9.820742607E0,9.798609018E-1
4.802393810E-1,-5.276173949E-1,9.806385040E0,9.846464992E-1
4.824765640E-1,-5.228317380E-1,9.810572624E0,1.008574724E0
4.847105120E-1,-5.318048596E-1,9.825528145E0,9.984052777E-1
4.869475720E-1,-5.509474277E-1,9.820742607E0,9.792626500E-1
4.891851210E-1,-5.413761139E-1,9.839884758E0,9.649057388E-1
4.914216930E-1,-5.318048596E-1,9.825528145E0,9.511470199E-1
4.936575330E-1,-5.126622319E-1,9.820742607E0,9.367900491E-1
4.958941050E-1,-4.929214716E-1,9.815358162E0,9.134600163E-1
4.981306780E-1,-4.923232496E-1,9.854242325E0,8.799605370E-1
5.003677990E-1,-4.785645306E-1,9.824930191E0,8.656035662E-1
5.026047990E-1,-4.636093974E-1,9.824930191E0,8.321040869E-1
5.048414320E-1,-4.492524564E-1,9.815358162E0,7.848458290E-1
5.070784920E-1,-4.438686073E-1,9.839286804E0,8.087740541E-1
5.093130500E-1,-4.630111754E-1,9.859027863E0,7.800601721E-1
5.115402230E-1,-4.671986103E-1,9.887741089E0,7.609176040E-1
5.137888810E-1,-4.863412082E-1,9.878767967E0,7.459624410E-1
5.160220350E-1,-4.911268353E-1,9.869196892E0,7.555337548E-1
5.182531750E-1,-5.341976285E-1,9.874580383E0,7.411768436E-1
5.204985360E-1,-5.341976285E-1,9.860223770E0,7.363911867E-1
5.227313240E-1,-5.294120312E-1,9.860223770E0,7.220342159E-1
5.249581310E-1,-5.192425251E-1,9.888937950E0,7.172485590E-1
5.272103280E-1,-5.431707501E-1,9.884152412E0,7.124629617E-1
5.294458630E-1,-5.670989752E-1,9.894321442E0,7.166503668E-1
5.316870740E-1,-5.575276613E-1,9.893723488E0,7.357929349E-1
5.339192520E-1,-5.575276613E-1,9.894321442E0,7.214360237E-1
5.361563120E-1,-5.718846321E-1,9.899106979E0,7.214360237E-1
5.383929460E-1,-5.814558864E-1,9.879964828E0,7.214360237E-1
5.406299450E-1,-5.916253924E-1,9.884750366E0,7.357929349E-1
5.428668220E-1,-5.964110494E-1,9.889535904E0,7.453642488E-1
5.451046150E-1,-5.958128572E-1,9.899106979E0,7.310073376E-1
5.473400890E-1,-6.011967063E-1,9.870991707E0,7.357929349E-1
5.495767830E-1,-5.964110494E-1,9.884750366E0,7.453642488E-1
5.518118910E-1,-5.964110494E-1,9.860821724E0,7.501499057E-1
5.540439470E-1,-6.017948985E-1,9.856036186E0,7.740781307E-1
5.562869890E-1,-5.730810165E-1,9.851250648E0,7.549355626E-1
5.585242320E-1,-5.491527915E-1,9.850652695E0,7.692924738E-1
5.607636730E-1,-5.635097623E-1,9.845867157E0,7.597211599E-1
5.629986580E-1,-5.395814776E-1,9.821938515E0,7.507480979E-1
5.652341930E-1,-5.156532526E-1,9.806983948E0,7.411768436E-1
5.674707660E-1,-5.114658475E-1,9.783653259E0,7.226324677E-1
5.697046520E-1,-4.725824594E-1,9.783055305E0,7.130611539E-1
5.719329240E-1,-4.588237405E-1,9.768099785E0,7.040880919E-1
5.741812760E-1,-4.247260094E-1,9.768099785E0,6.801598072E-1
5.764182750E-1,-4.151547253E-1,9.758528709E0,6.562315822E-1
5.786580210E-1,-4.301098585E-1,9.739386559E0,6.466603279E-1
5.808901990E-1,-4.007977843E-1,9.744172096E0,6.329016089E-1
5.831184710E-1,-4.061816335E-1,9.734002113E0,6.616154313E-1
5.853653580E-1,-4.061816335E-1,9.738788605E0,6.664010882E-1
5.876018690E-1,-3.870390654E-1,9.757930756E0,7.046862841E-1
5.898413090E-1,-3.726821244E-1,9.752547264E0,7.142575383E-1
5.920729990E-1,-3.870390654E-1,9.753145218E0,7.094719410E-1
5.943003550E-1,-3.966103494E-1,9.748359680E0,7.136593461E-1
5.965494400E-1,-3.918247223E-1,9.781260490E0,7.375875711E-1
5.987838760E-1,-3.822534084E-1,9.766903877E0,7.663014531E-1
6.010137950E-1,-3.631108403E-1,9.771091461E0,7.812566161E-1
6.032594010E-1,-3.589234054E-1,9.766305923E0,7.950153351E-1
6.054961560E-1,-3.589234054E-1,9.761520386E0,7.764709592E-1
6.077359630E-1,-3.541377485E-1,9.756733894E0,7.621139884E-1
6.099698500E-1,-3.397808075E-1,9.747162819E0,7.764709592E-1
6.122066050E-1,-3.302095234E-1,9.761520386E0,7.716853023E-1
6.144437270E-1,-3.589234054E-1,9.766305923E0,7.764709592E-1
6.166812760E-1,-3.445664644E-1,9.751948357E0,7.716853023E-1
6.189169930E-1,-3.302095234E-1,9.747162819E0,7.716853023E-1
6.211533830E-1,-3.296113312E-1,9.761520386E0,7.477570772E-1
6.233901990E-1,-3.535395563E-1,9.756733894E0,7.477570772E-1
6.256273210E-1,-3.493520916E-1,9.732806206E0,7.381857634E-1
6.278644420E-1,-3.535395563E-1,9.747760773E0,7.190431952E-1
6.301011970E-1,-3.487538993E-1,9.738189697E0,7.190431952E-1
6.323388680E-1,-3.439682424E-1,9.738189697E0,6.999006271E-1
6.345749520E-1,-3.535395563E-1,9.733404160E0,6.903293133E-1
6.368110360E-1,-3.726821244E-1,9.742975235E0,6.711867452E-1
6.390473650E-1,-3.726821244E-1,9.724431038E0,6.711867452E-1
6.412843030E-1,-3.678964674E-1,9.724431038E0,6.568298340E-1
6.435213640E-1,-3.870390654E-1,9.710074425E0,6.281159520E-1
6.457584240E-1,-4.055834413E-1,9.725028992E0,6.137589812E-1
6.479949350E-1,-4.205385745E-1,9.720243454E0,6.185446382E-1
6.502318130E-1,-4.247260094E-1,9.725028992E0,6.089733839E-1
6.524694840E-1,-4.199403822E-1,9.744172096E0,6.041877270E-1
6.547052010E-1,-4.582255483E-1,9.739984512E0,5.988038778E-1
6.569422620E-1,-4.384847581E-1,9.749555588E0,5.706881881E-1
6.591785290E-1,-4.486542344E-1,9.744770050E0,5.844469070E-1
6.614156510E-1,-4.767699242E-1,9.759725571E0,5.892325640E-1
6.636524060E-1,-4.815555513E-1,9.764511108E0,5.700899959E-1
6.658862920E-1,-4.624129832E-1,9.764511108E0,5.653043389E-1
6.681143200E-1,-4.671986103E-1,9.759725571E0,5.653043389E-1
6.703635880E-1,-4.815555513E-1,9.774082184E0,5.653043389E-1
6.725993670E-1,-4.618147612E-1,9.774082184E0,5.318048596E-1
6.748389910E-1,-4.671986103E-1,9.769296646E0,5.413761139E-1
6.770728770E-1,-4.815555513E-1,9.764511108E0,5.365904570E-1
6.793098770E-1,-4.719842672E-1,9.754940033E0,5.270192027E-1
6.815465100E-1,-4.713860750E-1,9.778867722E0,5.365904570E-1
6.837832650E-1,-4.618147612E-1,9.764511108E0,5.180460811E-1
6.860202650E-1,-4.905286431E-1,9.765109062E0,5.222335458E-1
6.882576920E-1,-4.570291340E-1,9.764511108E0,5.132604837E-1
6.904937150E-1,-4.336991012E-1,9.749555588E0,5.180460811E-1
6.927273570E-1,-4.378865361E-1,9.750154495E0,5.036891699E-1
6.949552020E-1,-4.474578202E-1,9.774082184E0,5.228317380E-1
6.972039200E-1,-4.474578202E-1,9.769296646E0,5.132604837E-1
6.994407970E-1,-4.522434771E-1,9.750154495E0,5.036891699E-1
7.016807880E-1,-4.522434771E-1,9.774082184E0,5.180460811E-1
7.039156510E-1,-4.570291340E-1,9.754940033E0,5.036891699E-1
7.061521620E-1,-4.528416991E-1,9.750154495E0,5.180460811E-1
7.083877580E-1,-4.612165689E-1,9.788438797E0,4.941178858E-1
7.106243300E-1,-4.618147612E-1,9.764511108E0,5.180460811E-1
7.128610850E-1,-4.522434771E-1,9.769296646E0,5.132604837E-1
7.150979630E-1,-4.671986103E-1,9.764511108E0,5.509474277E-1
7.173347790E-1,-4.719842672E-1,9.759725571E0,5.557330847E-1
7.195715960E-1,-4.624129832E-1,9.754940033E0,5.796613097E-1
7.218087170E-1,-4.671986103E-1,9.769296646E0,5.748756528E-1
7.240462660E-1,-4.630111754E-1,9.754341125E0,5.892325640E-1
7.262820450E-1,-4.630111754E-1,9.759127617E0,5.988038778E-1
7.285186170E-1,-4.582255483E-1,9.754341125E0,6.275177598E-1
7.307522590E-1,-4.486542344E-1,9.763913155E0,6.418746710E-1
7.329805310E-1,-4.534398913E-1,9.759127617E0,6.466603279E-1
7.352291270E-1,-4.438686073E-1,9.763913155E0,6.275177598E-1
7.374659440E-1,-4.438686073E-1,9.772886276E0,6.514459848E-1
7.397059340E-1,-4.295116663E-1,9.787242889E0,6.514459848E-1
7.419404920E-1,-4.295116663E-1,9.787242889E0,6.610172391E-1
7.441760880E-1,-4.097708762E-1,9.791430473E0,6.610172391E-1
7.464129040E-1,-4.151547253E-1,9.782457352E0,6.705885530E-1
7.486494160E-1,-4.049852192E-1,9.801001549E0,6.610172391E-1
7.508862930E-1,-4.199403822E-1,9.796813965E0,6.801598072E-1
7.531231090E-1,-4.247260094E-1,9.782457352E0,6.897311211E-1
7.553599260E-1,-4.486542344E-1,9.792028427E0,7.088736892E-1
7.575970470E-1,-4.438686073E-1,9.792028427E0,7.040880919E-1
7.598345960E-1,-4.342973232E-1,9.792028427E0,7.088736892E-1
7.620704360E-1,-4.636093974E-1,9.777671814E0,7.369893789E-1
7.643072520E-1,-4.683950245E-1,9.777671814E0,7.561319470E-1
7.665438250E-1,-4.779663086E-1,9.787242889E0,7.561319470E-1
7.687807630E-1,-4.731806815E-1,9.792028427E0,7.369893789E-1
7.710171520E-1,-4.731806815E-1,9.783055305E0,7.178468108E-1
7.732545180E-1,-4.827519655E-1,9.768698692E0,7.322037220E-1
7.754925550E-1,-4.875376225E-1,9.759127617E0,7.322037220E-1
7.777291880E-1,-4.779663086E-1,9.763913155E0,7.322037220E-1
7.799646620E-1,-5.018945336E-1,9.754940033E0,6.987041831E-1
7.822010510E-1,-5.018945336E-1,9.740582466E0,6.795616150E-1
7.844382950E-1,-4.923232496E-1,9.744770050E0,6.939185858E-1
7.866760880E-1,-4.977070987E-1,9.707083702E0,6.747759581E-1
7.889155900E-1,-5.024927258E-1,9.692726135E0,6.891329288E-1
7.911481950E-1,-4.977070987E-1,9.683155060E0,6.556333899E-1
7.933854990E-1,-4.785645306E-1,9.682557106E0,6.514459848E-1
7.956219490E-1,-4.785645306E-1,9.668798447E0,6.227321029E-1
7.978589490E-1,-4.689932466E-1,9.672985077E0,6.466603279E-1
8.000952770E-1,-4.737788737E-1,9.682557106E0,6.275177598E-1
8.023321550E-1,-4.839483798E-1,9.659226418E0,6.370890141E-1
8.045691540E-1,-4.935196638E-1,9.664012909E0,6.466603279E-1
8.068060930E-1,-4.929214716E-1,9.673583984E0,6.466603279E-1
8.090427870E-1,-4.929214716E-1,9.678369522E0,6.466603279E-1
8.112796030E-1,-4.881358147E-1,9.697511673E0,6.604190469E-1
8.135171520E-1,-4.929214716E-1,9.687940598E0,6.556333899E-1
8.157529310E-1,-4.929214716E-1,9.687940598E0,6.604190469E-1
8.179866950E-1,-4.642075896E-1,9.701699257E0,6.705885530E-1
8.202147840E-1,-4.887340367E-1,9.677771568E0,6.939185858E-1
8.224636850E-1,-4.648058116E-1,9.668199539E0,6.849454641E-1
8.247000740E-1,-4.552344978E-1,9.663414001E0,6.801598072E-1
8.269397600E-1,-4.695914388E-1,9.649057388E0,6.801598072E-1
8.291738290E-1,-4.552344978E-1,9.658628464E0,6.849454641E-1
8.314115000E-1,-4.558327198E-1,9.629316330E0,7.232306600E-1
8.336473400E-1,-4.558327198E-1,9.638887405E0,7.040880919E-1
8.358840960E-1,-4.654040039E-1,9.610772133E0,6.849454641E-1
8.381204240E-1,-4.749752879E-1,9.620343208E0,6.897311211E-1
8.403575450E-1,-4.606183469E-1,9.620343208E0,6.801598072E-1
8.425945450E-1,-4.612165689E-1,9.601201057E0,6.945167780E-1
8.448314220E-1,-4.654040039E-1,9.605986595E0,6.849454641E-1
8.470692150E-1,-4.701896608E-1,9.615557671E0,6.897311211E-1
8.493056650E-1,-4.462614357E-1,9.615557671E0,6.562315822E-1
8.515413220E-1,-4.510470629E-1,9.620343208E0,6.753742099E-1
8.537791760E-1,-4.414757788E-1,9.629316330E0,6.658028960E-1
8.560206920E-1,-4.408775866E-1,9.620343208E0,6.424728632E-1
8.582551890E-1,-4.360919297E-1,9.610772133E0,6.281159520E-1
8.604884050E-1,-4.504488707E-1,9.625128746E0,6.089733839E-1
8.627211930E-1,-4.408775866E-1,9.615557671E0,5.802595019E-1
8.649496480E-1,-4.600201547E-1,9.601799011E0,5.706881881E-1
8.671997690E-1,-4.360919297E-1,9.605986595E0,5.754738450E-1
8.694353650E-1,-4.402793646E-1,9.610772133E0,5.515456200E-1
8.716753560E-1,-4.498506486E-1,9.625727654E0,5.467599630E-1
8.739087540E-1,-4.642075896E-1,9.611370087E0,5.180460811E-1
8.761459360E-1,-4.642075896E-1,9.606584549E0,4.989035130E-1
8.783829360E-1,-4.594219327E-1,9.601799011E0,4.749752879E-1
8.806196910E-1,-4.683950245E-1,9.616754532E0,4.366901219E-1
8.828563240E-1,-4.588237405E-1,9.611968994E0,4.372883439E-1
8.850939950E-1,-4.588237405E-1,9.602396965E0,4.229314029E-1
8.873295910E-1,-4.582255483E-1,9.607182503E0,3.846462369E-1
8.895665300E-1,-4.534398913E-1,9.607182503E0,3.846462369E-1
8.918030410E-1,-4.534398913E-1,9.621540070E0,3.798605800E-1
8.940401620E-1,-4.199403822E-1,9.616155624E0,3.517449200E-1
8.962769790E-1,-4.151547253E-1,9.620942116E0,3.565305769E-1
8.985137950E-1,-4.145565331E-1,9.635298729E0,3.517449200E-1
9.007512840E-1,-4.241278172E-1,9.640682220E0,3.421736360E-1
9.029900530E-1,-4.384847581E-1,9.640682220E0,3.607180119E-1
9.052239390E-1,-4.432703853E-1,9.645467758E0,3.463610709E-1
9.074607560E-1,-4.289134443E-1,9.644869804E0,3.750749528E-1
9.096969000E-1,-4.432703853E-1,9.659825325E0,3.702892959E-1
9.119344490E-1,-4.624129832E-1,9.664610863E0,3.990031779E-1
9.141712050E-1,-4.671986103E-1,9.678967476E0,4.175475538E-1
9.164080820E-1,-4.815555513E-1,9.678967476E0,4.223332107E-1
9.186470350E-1,-4.965106845E-1,9.678967476E0,4.558327198E-1
9.208862320E-1,-5.156532526E-1,9.674779892E0,4.600201547E-1
9.231180430E-1,-5.347958803E-1,9.679565430E0,4.935196638E-1
9.253547380E-1,-5.545366406E-1,9.660423279E0,5.120640397E-1
9.275903940E-1,-5.635097623E-1,9.703494072E0,5.407779217E-1
9.298284920E-1,-5.736792088E-1,9.675378799E0,5.551348329E-1
9.320651870E-1,-5.593222976E-1,9.684351921E0,5.264210105E-1
9.343018810E-1,-5.832505226E-1,9.704092026E0,5.742774606E-1
9.365391860E-1,-5.784648657E-1,9.708877563E0,5.694918036E-1
9.387766740E-1,-5.688936114E-1,9.703494072E0,5.886343718E-1
9.410123300E-1,-5.736792088E-1,9.722636223E0,5.934200287E-1
9.432490860E-1,-5.688936114E-1,9.708279610E0,5.982056856E-1
9.454856580E-1,-5.784648657E-1,9.717850685E0,5.928218365E-1
9.477208880E-1,-5.641079545E-1,9.722636223E0,6.173482537E-1
9.499519670E-1,-5.736792088E-1,9.727422714E0,6.215356588E-1
9.521931160E-1,-5.545366406E-1,9.722636223E0,6.077769399E-1
9.544212660E-1,-5.353940725E-1,9.722038269E0,6.221339107E-1
9.566727920E-1,-5.162515044E-1,9.707681656E0,6.221339107E-1
9.589063730E-1,-4.827519655E-1,9.697511673E0,6.131607890E-1
9.611464250E-1,-4.731806815E-1,9.707083702E0,5.988038778E-1
9.633799450E-1,-4.492524564E-1,9.692128181E0,5.940182209E-1
9.656170670E-1,-4.301098585E-1,9.677771568E0,5.898307562E-1
9.678535170E-1,-4.061816335E-1,9.686744690E0,5.850451589E-1
9.700901500E-1,-3.870390654E-1,9.662816048E0,5.760720372E-1
9.723274550E-1,-3.535395563E-1,9.671789169E0,5.569294691E-1
9.745626850E-1,-3.439682424E-1,9.671789169E0,5.569294691E-1
9.767913830E-1,-3.481557071E-1,9.671789169E0,5.240281820E-1
9.790374770E-1,-3.200400174E-1,9.666405678E0,5.623133183E-1
9.812741710E-1,-3.008974493E-1,9.680762291E0,5.623133183E-1
9.835131840E-1,-3.248256743E-1,9.666405678E0,5.814558864E-1
9.857448740E-1,-3.152543902E-1,9.680762291E0,5.862415433E-1
9.879726570E-1,-3.050848842E-1,9.704689980E0,5.910272002E-1
9.902225960E-1,-3.104687333E-1,9.708877563E0,6.239284873E-1
9.924592910E-1,-3.200400174E-1,9.723235130E0,6.430711150E-1
9.946979390E-1,-3.056831062E-1,9.718449593E0,6.526423693E-1
9.969294450E-1,-3.200400174E-1,9.718449593E0,6.669993401E-1
9.991599140E-1,-3.343969584E-1,9.728020668E0,6.957131624E-1
1.001405092E0,-3.296113312E-1,9.742377281E0,7.100701332E-1
1.003641908E0,-3.439682424E-1,9.751948357E0,7.238288522E-1
1.005880799E0,-3.535395563E-1,9.766305923E0,7.573283911E-1
1.008112977E0,-3.391826153E-1,9.771091461E0,7.621139884E-1
1.010339540E0,-3.678964674E-1,9.799804688E0,7.758727670E-1
1.012576783E0,-3.822534084E-1,9.819545746E0,8.093722463E-1
1.014815858E0,-4.103690982E-1,9.853045464E0,8.470591903E-1
1.017071535E0,-4.438686073E-1,9.868000984E0,8.422735929E-1
1.019298769E0,-4.295116663E-1,9.886545181E0,8.757730722E-1
1.021528688E0,-4.348955154E-1,9.881759644E0,9.038887620E-1
1.023777589E0,-4.582255483E-1,9.900901794E0,9.278169870E-1
1.026010133E0,-4.725824594E-1,9.911071777E0,9.182456732E-1
1.028250612E0,-5.012963414E-1,9.930213928E0,9.607182741E-1
1.030481691E0,-4.965106845E-1,9.920642853E0,9.463613629E-1
1.032717042E0,-5.012963414E-1,9.934999466E0,9.320043921E-1
1.034944643E0,-5.252245665E-1,9.926026344E0,9.415757060E-1
1.037193666E0,-5.300102234E-1,9.921240807E0,9.415757060E-1
1.039430299E0,-5.204389095E-1,9.930811882E0,9.320043921E-1
1.041670290E0,-5.252245665E-1,9.930811882E0,9.559326172E-1
1.043904115E0,-5.294120312E-1,9.945169449E0,9.128618240E-1
1.046141725E0,-5.300102234E-1,9.926026344E0,9.176474810E-1
1.048377504E0,-5.252245665E-1,9.930811882E0,9.128618240E-1
1.050614381E0,-5.006981492E-1,9.935597420E0,8.985049129E-1
1.052850893E0,-5.054838061E-1,9.930811882E0,8.841479421E-1
1.055087709E0,-4.815555513E-1,9.925428391E0,8.751748800E-1
1.057324525E0,-4.767699242E-1,9.930213928E0,8.560323119E-1
1.059561647E0,-4.576273263E-1,9.925428391E0,8.703892231E-1
1.061799684E0,-4.241278172E-1,9.934401512E0,8.614161611E-1
1.064036012E0,-4.091726840E-1,9.934401512E0,8.422735929E-1
1.066271791E0,-3.948157430E-1,9.953543663E0,8.231309652E-1
1.068508546E0,-3.756731451E-1,9.938589096E0,8.237292171E-1
1.070746828E0,-3.613162339E-1,9.948160172E0,8.333004713E-1
1.072981691E0,-3.517449200E-1,9.943374634E0,8.141579032E-1
1.075218568E0,-3.469592929E-1,9.943374634E0,7.998009920E-1
1.077454958E0,-3.367897868E-1,9.971489906E0,8.189435601E-1
1.079692811E0,-3.128615618E-1,9.971489906E0,7.956135273E-1
1.081930238E0,-3.032902777E-1,9.980463028E0,8.099704385E-1
1.084165651E0,-2.985046208E-1,9.970891953E0,8.003991842E-1
1.086402650E0,-2.793620527E-1,9.966106415E0,8.099704385E-1
1.088639223E0,-3.026920557E-1,9.990034103E0,7.908278704E-1
1.090876405E0,-3.266202807E-1,9.985847473E0,7.806583643E-1
1.093113099E0,-3.266202807E-1,9.985847473E0,7.806583643E-1
1.095349672E0,-3.218346536E-1,9.990633011E0,7.477570772E-1
1.097586976E0,-3.272185028E-1,9.947562218E0,7.621139884E-1
1.099825197E0,-3.463610709E-1,9.952945709E0,7.423732281E-1
1.102059938E0,-3.696911037E-1,9.953543663E0,7.280163169E-1
1.104296937E0,-4.037888348E-1,9.939785004E0,7.088736892E-1
1.106533022E0,-4.325026870E-1,9.934999466E0,7.417750359E-1
1.108770387E0,-4.564309120E-1,9.921240807E0,7.130611539E-1
1.111007142E0,-4.803591371E-1,9.917053223E0,6.939185858E-1
1.113243959E0,-4.995017350E-1,9.898509026E0,6.604190469E-1
1.115480836E0,-4.947160780E-1,9.897911072E0,6.747759581E-1
1.117718568E0,-5.090730190E-1,9.922437668E0,6.699903607E-1
1.119954164E0,-5.371887088E-1,9.927821159E0,6.550351977E-1
1.122191041E0,-5.371887088E-1,9.923035622E0,6.550351977E-1
1.124427553E0,-5.473581553E-1,9.913464546E0,6.646065116E-1
1.126664674E0,-5.521438122E-1,9.918250084E0,6.693921089E-1
1.128901490E0,-5.712863803E-1,9.894919395E0,6.502495408E-1
1.131138490E0,-5.754738450E-1,9.914062500E0,6.215356588E-1
1.133376039E0,-5.856433511E-1,9.899705887E0,6.167500615E-1
1.135612611E0,-5.904290080E-1,9.894919395E0,6.119644046E-1
1.137848390E0,-5.802595019E-1,9.899705887E0,5.928218365E-1
1.140084779E0,-5.946164131E-1,9.871589661E0,5.497509837E-1
1.142321596E0,-6.137589812E-1,9.876974106E0,5.306084156E-1
1.144558656E0,-6.089733839E-1,9.881160736E0,5.258227587E-1
1.146795472E0,-6.137589812E-1,9.881759644E0,4.971089065E-1
1.149032045E0,-5.802595019E-1,9.857233047E0,4.642075896E-1
1.151269166E0,-5.850451589E-1,9.857233047E0,4.546363056E-1
1.153506898E0,-5.796613097E-1,9.857831001E0,4.307080805E-1
1.155742555E0,-5.796613097E-1,9.833903313E0,3.972085714E-1
1.157979371E0,-5.844469070E-1,9.833903313E0,3.828516304E-1
1.160215883E0,-5.844469070E-1,9.843474388E0,3.637090325E-1
1.162453004E0,-6.029912829E-1,9.834501266E0,3.014956415E-1
1.164689760E0,-6.083751321E-1,9.815358162E0,3.110669553E-1
1.166926332E0,-6.275177598E-1,9.806385040E0,2.871387303E-1
1.169163453E0,-6.556333899E-1,9.802198410E0,2.632105052E-1
1.171401185E0,-6.658028960E-1,9.773484230E0,2.297109663E-1
1.173636842E0,-6.849454641E-1,9.769296646E0,2.153540403E-1
1.175873658E0,-7.040880919E-1,9.750752449E0,1.866401732E-1
1.178110170E0,-7.040880919E-1,9.731609344E0,1.770688742E-1
1.180347291E0,-7.190431952E-1,9.684351921E0,1.435693651E-1
1.182584047E0,-7.471588850E-1,9.694520950E0,1.148554832E-1
1.184820558E0,-7.417750359E-1,9.708877563E0,6.699903309E-2
1.187057435E0,-7.178468108E-1,9.693922997E0,5.802594870E-2
1.189295167E0,-7.034898400E-1,9.689137459E0,3.409772366E-2
1.191530824E0,-7.088736892E-1,9.637093544E0,5.383851007E-3
1.193767762E0,-6.807580590E-1,9.602995872E0,-1.794617064E-2
1.196004457E0,-6.711867452E-1,9.579067230E0,-8.374879137E-3
1.198241334E0,-6.574280262E-1,9.531210899E0,-3.649054468E-2
1.200478151E0,-6.580262184E-1,9.497711182E0,-5.084748194E-2
1.202712159E0,-6.436693072E-1,9.483354568E0,-6.041877344E-2
1.204940980E0,-6.299105883E-1,9.444471359E0,-7.477571070E-2
1.207189271E0,-6.251249313E-1,9.434899330E0,-6.939185411E-2
1.209425111E0,-6.484549642E-1,9.459425926E0,-7.477571070E-2
1.211664675E0,-5.916253924E-1,9.439086914E0,-3.589234129E-2
1.213898500E0,-5.730810165E-1,9.419944763E0,-2.632104978E-2
1.216135316E0,-5.491527915E-1,9.428917885E0,-1.674975827E-2
1.218372194E0,-5.347958803E-1,9.413962364E0,-6.580262445E-3
1.220609193E0,-5.162515044E-1,9.394820213E0,1.256231871E-2
1.222846131E0,-5.162515044E-1,9.385248184E0,7.776673418E-3
1.225083864E0,-4.929214716E-1,9.355937004E0,1.256231871E-2
1.227319337E0,-4.642075896E-1,9.345767021E0,5.563312769E-2
1.229556032E0,-4.648058116E-1,9.317052841E0,5.623133108E-2
1.231790223E0,-4.360919297E-1,9.326025963E0,7.537391037E-2
1.234019533E0,-4.217349887E-1,9.330811501E0,9.451649338E-2
1.236266237E0,-3.930211067E-1,9.334999084E0,7.118647546E-2
1.238503236E0,-3.499503136E-1,9.329615593E0,1.046859920E-1
1.240742861E0,-3.355933726E-1,9.339186668E0,9.511470050E-2
1.242977968E0,-3.206382394E-1,9.348159790E0,8.614161611E-2
1.245213746E0,-2.973082066E-1,9.348159790E0,9.571290761E-2
1.247450502E0,-2.823530734E-1,9.376275063E0,1.292124242E-1
1.249686830E0,-3.068794906E-1,9.352945328E0,1.286142170E-1
1.251923829E0,-3.595215976E-1,9.367900848E0,1.333998591E-1
1.254160463E0,-3.978067636E-1,9.358927727E0,1.663011760E-1
1.256397523E0,-3.978067636E-1,9.354142189E0,1.423729509E-1
1.258634401E0,-3.637090325E-1,9.396614075E0,1.328016520E-1
1.260872194E0,-3.146561682E-1,9.439086914E0,8.075776696E-2
1.263107728E0,-2.757728100E-1,9.476774216E0,8.135596663E-2
1.265344606E0,-2.506481707E-1,9.538987160E0,5.742774159E-2
1.267581056E0,-2.404786795E-1,9.591629982E0,2.392822690E-2
1.269817933E0,-2.536391914E-1,9.639486313E0,0.000000000E0
1.272051820E0,-2.967100143E-1,9.664012909E0,0.000000000E0
1.274280152E0,-3.152543902E-1,9.678967476E0,-3.828516230E-2
1.276529908E0,-3.577269912E-1,9.689137459E0,-6.759724021E-2
1.278766176E0,-3.864408433E-1,9.680164337E0,-7.238288224E-2
1.281004701E0,-4.247260094E-1,9.661619186E0,-1.304088384E-1
1.283238283E0,-4.875376225E-1,9.648459435E0,-1.166501045E-1
1.285475160E0,-5.641079545E-1,9.640084267E0,-1.220339537E-1
1.287712282E0,-6.406782866E-1,9.626923561E0,-1.369891018E-1
1.289949098E0,-7.226324677E-1,9.623334885E0,-1.375873089E-1
1.292185853E0,-7.986045480E-1,9.643673897E0,-1.381855011E-1
1.294422731E0,-8.416753411E-1,9.649057388E0,-1.387837082E-1
1.296660463E0,-8.943174481E-1,9.687940598E0,-1.106680483E-1
1.298895997E0,-8.991031051E-1,9.697511673E0,-9.152546525E-2
1.301132631E0,-9.182456732E-1,9.698110580E0,-9.631111473E-2
1.303369203E0,-9.176474810E-1,9.717252731E0,-8.733802289E-2
1.305606569E0,-9.367900491E-1,9.741181374E0,-8.733802289E-2
1.307843385E0,-9.463613629E-1,9.750752449E0,-6.340979785E-2
1.310079957E0,-9.511470199E-1,9.760323524E0,-5.383851007E-2
1.312316957E0,-9.840483069E-1,9.808777809E0,-5.443671346E-2
1.314554506E0,-9.930213690E-1,9.842277527E0,-2.572284266E-2
1.316787477E0,-1.031306505E0,9.852447510E0,-2.392822644E-3
1.319015565E0,-1.055234790E0,9.885947227E0,2.572284266E-2
1.321263978E0,-1.055234790E0,9.885947227E0,3.529413417E-2
1.323500551E0,-1.025922656E0,9.933204651E0,7.357929647E-2
1.325740297E0,-1.001994491E0,9.956535339E0,1.022931710E-1
1.327974122E0,-9.780662656E-1,9.989436150E0,1.597209126E-1
1.330211305E0,-9.547362328E-1,9.993025780E0,2.506481707E-1
1.332448793E0,-9.595218897E-1,1.003131104E1,3.074777126E-1
1.334684388E0,-9.260223508E-1,1.006899738E1,3.702892959E-1
1.336921205E0,-9.212366939E-1,1.009711361E1,4.462614357E-1
1.339157777E0,-8.739784956E-1,1.011505985E1,5.180460811E-1
1.341394899E0,-8.596215248E-1,1.012881851E1,5.898307562E-1
1.343631715E0,-8.315058947E-1,1.014257717E1,6.903293133E-1
1.345868776E0,-8.219345808E-1,1.016590691E1,7.567301393E-1
1.348106568E0,-8.225327730E-1,1.017009449E1,8.141579032E-1
1.350340089E0,-8.177471161E-1,1.017966557E1,8.572286963E-1
1.352566652E0,-8.476574421E-1,1.015573788E1,8.997012973E-1
1.354814943E0,-8.757730722E-1,1.020359421E1,9.517452121E-1
1.357051820E0,-9.140582681E-1,1.021376324E1,9.421738982E-1
1.359292238E0,-9.577272534E-1,1.018086243E1,9.655039310E-1
1.361526246E0,-9.816554785E-1,1.018146038E1,9.655039310E-1
1.363762574E0,-1.010967612E0,1.017248726E1,9.744769931E-1
1.365999574E0,-1.054038405E0,1.013958549E1,9.457631707E-1
1.368237062E0,-1.063609719E0,1.013001442E1,9.314061999E-1
1.370473024E0,-1.088136077E0,1.011625576E1,9.403793216E-1
1.372707215E0,-1.106680512E0,1.012582684E1,9.451649189E-1
1.374935853E0,-1.116251707E0,1.012164021E1,9.260223508E-1
1.377183168E0,-1.144965649E0,1.011745262E1,8.877372146E-1
1.379416322E0,-1.168893814E0,1.012283611E1,8.781659007E-1
1.381646180E0,-1.197009563E0,1.012343407E1,8.201399446E-1
1.383899476E0,-1.182652593E0,1.009950638E1,7.920243144E-1
1.386131166E0,-1.177268744E0,1.011386299E1,7.489534616E-1
1.388370668E0,-1.191625714E0,1.009531879E1,7.010970116E-1
1.390602418E0,-1.167697430E0,1.008036327E1,6.586244106E-1
1.392840455E0,-1.138983607E0,1.008993530E1,6.538388133E-1
1.395077516E0,-1.104885817E0,1.007976532E1,6.305087805E-1
1.397314271E0,-1.080957651E0,1.007019424E1,6.167500615E-1
1.399550844E0,-1.066600680E0,1.006540871E1,5.688936114E-1
1.401787904E0,-1.037886858E0,1.006959629E1,5.551348329E-1
1.404025453E0,-1.028315544E0,1.005523872E1,5.503492355E-1
1.406261354E0,-1.018744230E0,1.006002426E1,5.407779217E-1
1.408498170E0,-1.023529887E0,1.006002426E1,5.407779217E-1
1.410734743E0,-1.018146038E0,1.006002426E1,5.312066078E-1
1.412971803E0,-1.023529887E0,1.006002426E1,5.407779217E-1
1.415208558E0,-1.027717352E0,1.006959629E1,5.312066078E-1
1.417442445E0,-1.052243710E0,1.006480980E1,5.545366406E-1
1.419668825E0,-1.047458172E0,1.005045319E1,5.641079545E-1
1.421909303E0,-1.076171994E0,1.006959629E1,6.071787477E-1
1.424155885E0,-1.091127157E0,1.007976532E1,6.448656917E-1
1.426395143E0,-1.115055323E0,1.006540871E1,6.544370055E-1
1.428631593E0,-1.144367456E0,1.006062317E1,7.160521746E-1
1.430865663E0,-1.168295622E0,1.006600666E1,7.489534616E-1
1.433102296E0,-1.207179070E0,1.006122112E1,8.105686903E-1
1.435339113E0,-1.226919770E0,1.006122112E1,8.679963946E-1
1.437576295E0,-1.237089276E0,1.005643559E1,9.056833982E-1
1.439814088E0,-1.266401410E0,1.006122112E1,9.774680734E-1
1.442049684E0,-1.266401410E0,1.009472084E1,1.043868899E0
1.444286500E0,-1.266999602E0,1.007976532E1,1.110867858E0
1.446520570E0,-1.286142230E0,1.008455086E1,1.138983607E0
1.448750306E0,-1.296311617E0,1.008933640E1,1.220339537E0
1.450996644E0,-1.320838094E0,1.006540871E1,1.253240824E0
1.453233522E0,-1.316650629E0,1.007019424E1,1.305882931E0
1.455473329E0,-1.322034478E0,1.007916737E1,1.367498159E0
1.457708619E0,-1.313061476E0,1.004088211E1,1.405783296E0
1.459943971E0,-1.323230863E0,1.003609657E1,1.467996716E0
1.462180665E0,-1.328614831E0,1.002114105E1,1.520040631E0
1.464416994E0,-1.323829174E0,1.003549862E1,1.577468276E0
1.466654298E0,-1.343569875E0,1.004028416E1,1.625324726E0
1.468890626E0,-1.348355532E0,1.003071213E1,1.634297848E0
1.471127504E0,-1.372283816E0,1.003609657E1,1.629512191E0
1.473361696E0,-1.387238979E0,1.001216793E1,1.624726534E0
1.475591005E0,-1.401595831E0,9.998409271E0,1.615155339E0
1.477838258E0,-1.425524116E0,9.998409271E0,1.586441398E0
1.480074830E0,-1.449452281E0,9.970293999E0,1.557129383E0
1.482314210E0,-1.454836130E0,9.937392235E0,1.538584948E0
1.484548890E0,-1.464407444E0,9.903892517E0,1.490728498E0
1.486787172E0,-1.464407444E0,9.880562782E0,1.457229018E0
1.489022035E0,-1.473978758E0,9.866206169E0,1.428515077E0
1.491259889E0,-1.493121386E0,9.818947792E0,1.371087432E0
1.493496156E0,-1.464407444E0,9.785448074E0,1.328614831E0
1.495730592E0,-1.483550072E0,9.766903877E0,1.252044439E0
1.497961977E0,-1.459621787E0,9.747760773E0,1.195214868E0
1.500205385E0,-1.444666624E0,9.728618622E0,1.152742267E0
1.502442689E0,-1.415952802E0,9.699904442E0,1.076770186E0
1.504681032E0,-1.377667665E0,9.656235695E0,1.010369420E0
1.506916383E0,-1.338784218E0,9.637093544E0,9.296116233E-1
1.509153138E0,-1.286740422E0,9.593423843E0,8.871390224E-1
1.511387818E0,-1.258026481E0,9.564710617E0,8.207381964E-1
1.513611878E0,-1.214955688E0,9.530612946E0,7.686942816E-1
1.515851625E0,-1.185643673E0,9.506684303E0,6.927221417E-1
1.518099672E0,-1.180858016E0,9.497113228E0,6.687939167E-1
1.520339662E0,-1.181456208E0,9.454640388E0,6.215356588E-1
1.522576479E0,-1.143171072E0,9.425328255E0,5.934200287E-1
1.524810426E0,-1.094716311E0,9.405587196E0,5.318048596E-1
1.527047425E0,-1.052243710E0,9.376275063E0,5.036891699E-1
1.529284730E0,-1.018146038E0,9.376275063E0,4.558327198E-1
1.531520570E0,-1.013360381E0,9.361918449E0,4.277170599E-1
1.533757326E0,-9.888339639E-1,9.366703987E0,3.846462369E-1
1.535990480E0,-1.007976532E0,9.371489525E0,3.702892959E-1
1.538217836E0,-1.046261668E0,9.343972206E0,3.367897868E-1
1.540467592E0,-1.083948612E0,9.349356651E0,2.889333367E-1
1.542703187E0,-1.141376376E0,9.350552559E0,2.596212626E-1
1.544939637E0,-1.184447169E0,9.327222824E0,1.830509305E-1
1.547179078E0,-1.226919770E0,9.318847656E0,1.298106313E-1
1.549414918E0,-1.255633712E0,9.290732384E0,7.238288224E-2
1.551650392E0,-1.279561877E0,9.281759262E0,5.324030295E-2
1.553877748E0,-1.308874011E0,9.244071960E0,1.016949583E-2
1.556125062E0,-1.342373490E0,9.230313301E0,-1.854437590E-2
1.558361879E0,-1.356730461E0,9.216554642E0,-3.768695518E-2
1.560601564E0,-1.342971683E0,9.173483849E0,-5.204389244E-2
1.562836793E0,-1.348355532E0,9.130413055E0,-3.768695518E-2
1.565073304E0,-1.310668588E0,9.110074043E0,3.409772366E-2
1.567308900E0,-1.259222865E0,9.065806389E0,1.160518974E-1
1.569545473E0,-1.207777262E0,9.021539688E0,2.021935135E-1
1.571782289E0,-1.170688510E0,9.005986214E0,3.218346536E-1
1.574019410E0,-1.086341500E0,8.980263710E0,4.660021961E-1
1.576256166E0,-9.912267923E-1,8.987442017E0,6.191428304E-1
1.578492799E0,-9.062815905E-1,8.971290588E0,7.202396393E-1
1.580730470E0,-8.213363886E-1,8.983852386E0,8.925228715E-1
1.582969056E0,-7.310073376E-1,8.991629601E0,1.027119160E0
1.585203248E0,-6.562315822E-1,8.974879265E0,1.199402332E0
1.587440004E0,-5.557330847E-1,9.001798630E0,1.319043517E0
1.589676210E0,-4.851447940E-1,9.019146919E0,1.482353687E0
1.591913698E0,-4.235295951E-1,9.074779510E0,1.639681697E0
1.594150453E0,-3.571287692E-1,9.116056442E0,1.807179332E0
1.596387025E0,-3.194418252E-1,9.157332420E0,1.960319996E0
1.598624086E0,-2.955136001E-1,9.204590797E0,2.088934183E0
1.600861574E0,-2.907279432E-1,9.284749985E0,2.241476536E0
1.603097291E0,-2.811566591E-1,9.332008362E0,2.337189436E0
1.605334291E0,-3.200400174E-1,9.384650230E0,2.436491728E0
1.607570619E0,-3.391826153E-1,9.427721024E0,2.536391973E0
1.609807740E0,-3.972085714E-1,9.432506561E0,2.631506681E0
1.612044435E0,-4.785645306E-1,9.467203140E0,2.682952404E0
1.614281129E0,-5.455635786E-1,9.486943245E0,2.725425005E0
1.616518312E0,-6.179464459E-1,9.473783493E0,2.776870728E0
1.618755372E0,-6.951149702E-1,9.470193863E0,2.776272535E0
1.620991273E0,-7.722834945E-1,9.452247620E0,2.804388046E0
1.623228090E0,-8.775677085E-1,9.406186104E0,2.760719061E0
1.625465028E0,-9.499505758E-1,9.369096756E0,2.726621389E0
1.627702150E0,-1.016949654E0,9.327222824E0,2.678166628E0
1.629939088E0,-1.079761267E0,9.266205788E0,2.611167669E0
1.632172608E0,-1.151545882E0,9.239286423E0,2.533999205E0
1.634401490E0,-1.218544960E0,9.187840462E0,2.452643156E0
1.636650087E0,-1.252044439E0,9.131608963E0,2.323430777E0
1.638885621E0,-1.280758262E0,9.075378418E0,2.199602127E0
1.641125368E0,-1.332802176E0,9.023932457E0,2.051247120E0
1.643358888E0,-1.351346612E0,8.962915421E0,1.879562140E0
1.645596010E0,-1.403988719E0,8.912068367E0,1.721635938E0
1.647830934E0,-1.460219979E0,8.866005898E0,1.545165181E0
1.650063051E0,-1.521835208E0,8.819944382E0,1.368096352E0
1.652306520E0,-1.560120344E0,8.763712883E0,1.219741344E0
1.654544374E0,-1.607378602E0,8.731410027E0,1.104885817E0
1.656781740E0,-1.664208174E0,8.714061737E0,9.804590940E-1
1.659016725E0,-1.730608940E0,8.677571297E0,8.321040869E-1
1.661253236E0,-1.787438512E0,8.664410591E0,7.028916478E-1
1.663490297E0,-1.824527264E0,8.646464348E0,5.593222976E-1
1.665727113E0,-1.876571178E0,8.629117012E0,3.972085714E-1
1.667963685E0,-1.894517303E0,8.611170769E0,2.392822653E-1
1.670200807E0,-1.927418590E0,8.598010063E0,1.298106313E-1
1.672438478E0,-1.955534339E0,8.565108299E0,-1.375873014E-2
1.674673951E0,-1.964507341E0,8.532805443E0,-1.615155339E-1
1.676910951E0,-1.963909149E0,8.499904633E0,-2.614158690E-1
1.679147218E0,-1.963310957E0,8.481359482E0,-3.900300860E-1
1.681384462E0,-1.938784599E0,8.467002869E0,-4.947160780E-1
1.683621339E0,-1.938186288E0,8.443673134E0,-6.047859192E-1
1.685857728E0,-1.923231244E0,8.415556908E0,-7.429714203E-1
1.688094850E0,-1.917847395E0,8.397012711E0,-8.668000102E-1
1.690332521E0,-1.931606054E0,8.388039589E0,-9.667003751E-1
1.692568239E0,-1.935195327E0,8.374280930E0,-1.095314622E0
1.694805116E0,-1.944168448E0,8.365307808E0,-1.181456208E0
1.697041810E0,-1.910668850E0,8.350951195E0,-1.262213945E0
1.699279909E0,-1.828714728E0,8.325826645E0,-1.347159147E0
1.701517518E0,-1.780260086E0,8.311469078E0,-1.423131227E0
1.703740968E0,-1.670190215E0,8.295317650E0,-1.469791293E0
1.705990113E0,-1.569093466E0,8.289336205E0,-1.502094388E0
1.708225648E0,-1.458425403E0,8.297710419E0,-1.548754454E0
1.710465334E0,-1.357926846E0,8.295916557E0,-1.543370605E0
1.712698915E0,-1.228714466E0,8.298907280E0,-1.546959877E0
1.714935121E0,-1.104287624E0,8.297112465E0,-1.540977836E0
1.717172914E0,-9.702895880E-1,8.299505234E0,-1.487139225E0
1.719409486E0,-8.656035662E-1,8.292924881E0,-1.429113269E0
1.721646486E0,-7.657032609E-1,8.290532112E0,-1.332802176E0
1.723883363E0,-6.993024349E-1,8.294121742E0,-1.236491084E0
1.726120912E0,-6.287141442E-1,8.297112465E0,-1.107278705E0
1.728356569E0,-5.868397355E-1,8.267202377E0,-9.876375198E-1
1.730593568E0,-5.497509837E-1,8.237292290E0,-8.871390224E-1
1.732829896E0,-5.557330847E-1,8.246265411E0,-7.250252366E-1
1.735067018E0,-5.665007830E-1,8.231309891E0,-5.724828243E-1
1.737303773E0,-6.011967063E-1,8.231309891E0,-4.534398913E-1
1.739540651E0,-6.017948985E-1,8.254639626E0,-3.056831062E-1
1.741777711E0,-6.460621357E-1,8.278568268E0,-1.393819153E-1
1.744015260E0,-6.993024349E-1,8.307282448E0,-2.572284266E-2
1.746251039E0,-7.094719410E-1,8.335397720E0,1.172483116E-1
1.748487611E0,-7.429714203E-1,8.407182693E0,2.650051117E-1
1.750724123E0,-7.914260626E-1,8.445467949E0,3.690928817E-1
1.752960939E0,-8.153542876E-1,8.507082939E0,4.977070987E-1
1.755197816E0,-8.733802438E-1,8.541180611E0,6.496513486E-1
1.757434633E0,-9.074779749E-1,8.598010063E0,7.728816867E-1
1.759671754E0,-9.607182741E-1,8.622536659E0,8.967102766E-1
1.761909303E0,-1.013360381E0,8.666205406E0,9.625129104E-1
1.764145143E0,-1.056431174E0,8.709276199E0,1.043270707E0
1.766381898E0,-1.118644595E0,8.738588333E0,1.095314622E0
1.768618227E0,-1.161715388E0,8.791230202E0,1.166501045E0
1.770855348E0,-1.213759303E0,8.844470978E0,1.217946768E0
1.773092347E0,-1.261615753E0,8.873783112E0,1.222134113E0
1.775329225E0,-1.313061476E0,8.941978455E0,1.235892892E0
1.777567018E0,-1.341177106E0,8.971290588E0,1.197607756E0
1.779803468E0,-1.374078393E0,8.995817184E0,1.168893814E0
1.782039125E0,-1.397408366E0,9.019744873E0,1.135394335E0
1.784275697E0,-1.377667665E0,9.048459053E0,1.087537885E0
1.786512514E0,-1.347757339E0,9.081958771E0,1.011565804E0
1.788749635E0,-1.270588875E0,9.081359863E0,9.499505758E-1
1.790986451E0,-1.188036442E0,9.132805824E0,8.841479421E-1
1.793223268E0,-1.080957651E0,9.189037323E0,7.992027402E-1
1.795460267E0,-9.840483069E-1,9.211769104E0,7.334001660E-1
1.797697511E0,-8.344969153E-1,9.253045082E0,6.394818425E-1
1.799933168E0,-7.328019142E-1,9.290133476E0,5.730810165E-1
1.802170228E0,-6.406782866E-1,9.312865257E0,4.689932466E-1
1.804406862E0,-5.629115105E-1,9.360123634E0,4.079762697E-1
1.806643983E0,-5.335994363E-1,9.350552559E0,3.320041299E-1
1.808880739E0,-5.138586760E-1,9.364909172E0,2.554338276E-1
1.811117555E0,-5.324030519E-1,9.365508080E0,2.171486616E-1
1.813354615E0,-5.563312769E-1,9.337391853E0,1.507478207E-1
1.815589600E0,-5.940182209E-1,9.328418732E0,8.315058798E-2
1.817817750E0,-6.227321029E-1,9.309874535E0,5.443671346E-2
1.820064699E0,-6.424728632E-1,9.286544800E0,4.486542568E-2
1.822300783E0,-6.664010882E-1,9.272786140E0,3.050848842E-2
1.824540407E0,-6.999006271E-1,9.259027481E0,2.033899166E-2
1.826774660E0,-7.381857634E-1,9.287740707E0,2.991028316E-2
1.829011598E0,-7.860422134E-1,9.274580956E0,5.982056609E-4
1.831248658E0,-8.237292171E-1,9.313464165E0,-4.785645287E-3
1.833485230E0,-8.955138922E-1,9.338588715E0,1.375873014E-2
1.835718019E0,-9.188438654E-1,9.372088432E0,-1.974078640E-2
1.837958314E0,-9.661021233E-1,9.397212982E0,-2.512463741E-2
1.840195192E0,-1.003789067E0,9.440881729E0,-5.862415582E-2
1.842433412E0,-1.036092162E0,9.503693581E0,-9.272187948E-2
1.844669130E0,-1.040279627E0,9.518050194E0,-1.310070455E-1
1.846906068E0,-1.087537885E0,9.547960281E0,-1.549352705E-1
1.849143556E0,-1.143769264E0,9.596415520E0,-2.129612118E-1
1.851380189E0,-1.200000525E0,9.631111145E0,-2.709871531E-1
1.853615968E0,-1.256830096E0,9.661021233E0,-3.092723191E-1
1.855852357E0,-1.313061476E0,9.724431038E0,-3.768695593E-1
1.858089174E0,-1.384846091E0,9.730413437E0,-4.109672904E-1
1.860326234E0,-1.484148264E0,9.784850121E0,-4.354937077E-1
1.862563906E0,-1.573879123E0,9.829116821E0,-4.941178858E-1
1.864803041E0,-1.664208174E0,9.893125534E0,-5.186443329E-1
1.867036744E0,-1.764108539E0,9.928419113E0,-5.623133183E-1
1.869274476E0,-1.850250125E0,9.924830437E0,-5.730810165E-1
1.871509278E0,-1.926222205E0,9.945169449E0,-6.071787477E-1
1.873746949E0,-2.002792597E0,9.941579819E0,-6.317051649E-1
1.875983461E0,-2.031506538E0,9.946963310E0,-6.412764788E-1
1.878220582E0,-2.031506538E0,9.932606697E0,-6.364908218E-1
1.880457399E0,-2.030908108E0,9.942177773E0,-6.556333899E-1
1.882695436E0,-1.992623091E0,9.984650612E0,-6.317051649E-1
1.884936158E0,-1.938784599E0,1.001755238E1,-6.693921089E-1
1.887168763E0,-1.904686809E0,1.004566765E1,-7.022934556E-1
1.889404298E0,-1.851446509E0,1.009292603E1,-7.160521746E-1
1.891639710E0,-1.778465390E0,1.011565781E1,-7.585247755E-1
1.893877748E0,-1.758724689E0,1.015872860E1,-7.872386575E-1
1.896114808E0,-1.710269928E0,1.017248726E1,-8.105686903E-1
1.898351442E0,-1.676770449E0,1.017667484E1,-8.386843204E-1
1.900585206E0,-1.643270969E0,1.017667484E1,-8.524430394E-1
1.902813295E0,-1.609173179E0,1.016171932E1,-8.955138922E-1
1.905062806E0,-1.542772412E0,1.015095139E1,-8.757730722E-1
1.907298463E0,-1.509272933E0,1.012702370E1,-8.799605370E-1
1.909538515E0,-1.447657704E0,1.010189915E1,-8.602197170E-1
1.911769227E0,-1.371087432E0,1.008634567E1,-8.404789567E-1
1.913997682E0,-1.266401410E0,1.005583763E1,-8.111668825E-1
1.916245668E0,-1.165902853E0,1.005882835E1,-7.764709592E-1
1.918482728E0,-1.047458172E0,1.004207802E1,-7.088736892E-1
1.920723390E0,-9.182456732E-1,1.004506969E1,-6.885347366E-1
1.922957094E0,-7.794619799E-1,1.003310490E1,-6.203392744E-1
1.925192750E0,-6.460621357E-1,1.004985523E1,-5.479564071E-1
1.927429506E0,-5.030909777E-1,1.004746246E1,-4.701896608E-1
1.929663636E0,-3.978067636E-1,1.006421185E1,-3.834498227E-1
1.931893373E0,-2.452643216E-1,1.005703354E1,-2.865405083E-1
1.934139650E0,-1.262213886E-1,1.009292603E1,-1.567298770E-1
1.936376588E0,2.153540403E-2,1.010907745E1,-1.734796353E-2
1.938616335E0,1.645065546E-1,1.012044334E1,1.034895778E-1
1.940851442E0,3.361915946E-1,1.015513897E1,2.811566591E-1
1.943087037E0,4.881358147E-1,1.018564796E1,4.588237405E-1
1.945323793E0,6.693921089E-1,1.021077251E1,6.323033571E-1
1.947560365E0,8.219345808E-1,1.026939678E1,8.195417523E-1
1.949797426E0,9.595218897E-1,1.029033375E1,1.021137118E0
1.952033876E0,1.045065284E0,1.033160973E1,1.198205948E0
1.954270326E0,1.101296663E0,1.035374355E1,1.389631748E0
1.956507875E0,1.119840980E0,1.037168980E1,1.551745534E0
1.958745485E0,1.103689432E0,1.038066292E1,1.756331801E0
1.960981385E0,1.068993568E0,1.038963604E1,1.956730723E0
1.963217836E0,1.009172916E0,1.038485050E1,2.175075769E0
1.965451417E0,9.553344250E-1,1.038903809E1,2.370090723E0
1.967679445E0,8.584251404E-1,1.040399265E1,2.550748825E0
1.969928041E0,7.794619799E-1,1.039023399E1,2.759522676E0
1.972164857E0,6.586244106E-1,1.038126087E1,2.921038151E0
1.974404970E0,5.515456200E-1,1.037767220E1,3.096312523E0
1.976639772E0,4.402793646E-1,1.037827015E1,3.276372433E0
1.978875367E0,3.385843933E-1,1.039322472E1,3.418745279E0
1.981112184E0,2.374876440E-1,1.039920712E1,3.522234917E0
1.983346803E0,1.316052526E-1,1.041954613E1,3.611965895E0
1.985578126E0,1.555334684E-2,1.042074299E1,3.696911097E0
1.987822084E0,-9.032905847E-2,1.041236782E1,3.772284985E0
1.990059449E0,-1.776670814E-1,1.036570740E1,3.823730469E0
1.992299256E0,-2.213360965E-1,1.036630630E1,3.861417532E0
1.994530641E0,-2.979064286E-1,1.036750221E1,3.899104595E0
1.996757631E0,-3.457628787E-1,1.035374355E1,3.893720627E0
1.999005861E0,-3.702892959E-1,1.034895802E1,3.903291941E0
2.001242799E0,-3.601198196E-1,1.033998489E1,3.855435371E0
2.003479860E0,-3.314059377E-1,1.033460140E1,3.851248026E0
2.005702088E0,-3.260220885E-1,1.034417248E1,3.784249067E0
2.007939272E0,-2.632105052E-1,1.036271667E1,3.713660717E0
2.010176698E0,-1.902294010E-1,1.036690426E1,3.623331785E0
2.012416566E0,-1.507478207E-1,1.038126087E1,3.504886866E0
2.014654726E0,-1.070788130E-1,1.039083195E1,3.400201082E0
2.016902955E0,-5.324030295E-2,1.038604641E1,3.267399311E0
2.019139833E0,-2.811566554E-2,1.039561844E1,3.114856958E0
2.021376772E0,1.794616925E-3,1.036271667E1,2.971885681E0
2.023610780E0,6.939185411E-2,1.033819008E1,2.824727058E0
2.025847780E0,7.477571070E-2,1.029571724E1,2.643470764E0
2.028084840E0,1.094716340E-1,1.027238750E1,2.515454769E0
2.030322145E0,1.525424421E-1,1.021974564E1,2.391626120E0
2.032557863E0,2.153540403E-1,1.017607689E1,2.239681959E0
2.034794496E0,2.871387303E-1,1.012762165E1,2.140379906E0
2.037031312E0,4.079762697E-1,1.009771156E1,2.012962103E0
2.039268129E0,4.935196638E-1,1.002054310E1,1.923231244E0
2.041505006E0,6.041877270E-1,9.990633011E0,1.838286042E0
2.043741762E0,7.088736892E-1,9.936794281E0,1.791625977E0
2.045978883E0,8.135597110E-1,9.878170013E0,1.749751568E0
2.048216432E0,9.086744189E-1,9.823733330E0,1.750947952E0
2.050449342E0,1.009172916E0,9.793823242E0,1.747358680E0
2.052679871E0,1.089930773E0,9.749555588E0,1.743171334E0
2.054935548E0,1.156331539E0,9.705288887E0,1.738983870E0
2.057162111E0,1.237089276E0,9.661021233E0,1.740180254E0
2.059401918E0,1.289133191E0,9.631709099E0,1.745564103E0
2.061633730E0,1.360319614E0,9.563513756E0,1.784447432E0
2.063873963E0,1.378265858E0,9.510273933E0,1.808375716E0
2.066110719E0,1.425524116E0,9.466604233E0,1.832902193E0
2.068346254E0,1.457229018E0,9.389435768E0,1.875972986E0
2.070582887E0,1.509272933E0,9.354740143E0,1.924427629E0
2.072819826E0,1.522433400E0,9.291928291E0,1.986641049E0
2.075057496E0,1.530808330E0,9.277571678E0,2.048256159E0
2.077293519E0,1.543968797E0,9.224330902E0,2.105684042E0
2.079527101E0,1.543370605E0,9.200403214E0,2.143969059E0
2.081754945E0,1.509272933E0,9.186046600E0,2.229512453E0
2.084004457E0,1.499103427E0,9.190233231E0,2.301297188E0
2.086240541E0,1.431506157E0,9.177073479E0,2.362314224E0
2.088480104E0,1.378265858E0,9.182456970E0,2.419143677E0
2.090713807E0,1.316052437E0,9.211769104E0,2.461616278E0
2.092950990E0,1.268195987E0,9.259625435E0,2.513660192E0
2.095187623E0,1.182054400E0,9.265607834E0,2.550748825E0
2.097424379E0,1.129412293E0,9.290133476E0,2.602792740E0
2.099661195E0,1.091127157E0,9.338588715E0,2.630908489E0
2.101898988E0,1.034297585E0,9.358927727E0,2.606382132E0
2.104134645E0,1.025324464E0,9.382855415E0,2.587239504E0
2.106371705E0,1.002592683E0,9.416953087E0,2.525026083E0
2.108607912E0,9.792626500E-1,9.474979401E0,2.486740828E0
2.110844789E0,9.613165259E-1,9.523433685E0,2.414956331E0
2.113081544E0,9.391828775E-1,9.567103386E0,2.319243431E0
2.115315431E0,9.218349457E-1,9.611370087E0,2.170888424E0
2.117543580E0,8.943174481E-1,9.664610863E0,2.065604210E0
2.119793092E0,8.626125455E-1,9.713663101E0,1.951346874E0
2.122028871E0,8.500502706E-1,9.747760773E0,1.798206210E0
2.124268495E0,8.566305041E-1,9.796216011E0,1.674377680E0
2.126502321E0,8.440681696E-1,9.854840279E0,1.493121386E0
2.128739381E0,8.560323119E-1,9.912865639E0,1.340578914E0
2.130976198E0,8.769695163E-1,9.942177773E0,1.173679471E0
2.133209962E0,8.979067206E-1,9.990034103E0,1.030708313E0
2.135438722E0,9.326026440E-1,1.000917721E1,8.973084688E-1
2.137687013E0,9.589236975E-1,1.005284595E1,7.208378315E-1
2.139922914E0,9.936196208E-1,1.006720352E1,5.736792088E-1
2.142162477E0,1.033101201E0,1.007677460E1,4.594219327E-1
2.144393800E0,1.029511929E0,1.009651470E1,3.355933726E-1
2.146623109E0,1.055234790E0,1.014496994E1,2.213360965E-1
2.148869935E0,1.079761267E0,1.015454102E1,1.214357466E-1
2.151106752E0,1.104287624E0,1.015932655E1,6.879365444E-2
2.153346376E0,1.114457130E0,1.017368412E1,-2.392822644E-3
2.155581422E0,1.124626637E0,1.018804073E1,-2.153540403E-2
2.157817262E0,1.105484009E0,1.018325520E1,-3.589234129E-2
2.160054078E0,1.053440213E0,1.020837975E1,-6.041877344E-2
2.162290590E0,1.024726272E0,1.022333431E1,-6.999006122E-2
2.164527406E0,9.864411354E-1,1.021914768E1,-5.623133108E-2
2.166764222E0,9.332008362E-1,1.020538902E1,-4.725824669E-2
2.169001039E0,8.614161611E-1,1.020179939E1,-3.828516230E-2
2.171238160E0,8.033902049E-1,1.018804073E1,-5.982056609E-4
2.173475709E0,7.549355626E-1,1.016949654E1,2.751746029E-2
2.175711488E0,6.921239495E-1,1.016530895E1,6.999006122E-2
2.177948060E0,6.388836503E-1,1.015633583E1,1.220339537E-1
2.180184633E0,5.521438122E-1,1.012881851E1,1.830509305E-1
2.182421693E0,4.935196638E-1,1.011505985E1,2.494517565E-1
2.184658571E0,4.259224236E-1,1.011565781E1,3.248256743E-1
2.186895326E0,3.828516304E-1,1.013479996E1,3.912265003E-1
2.189132203E0,3.487538993E-1,1.014975548E1,4.432703853E-1
2.191369935E0,2.961117923E-1,1.017846966E1,5.335994363E-1
2.193605531E0,2.338984162E-1,1.018923664E1,5.521438122E-1
2.195842408E0,1.663011760E-1,1.019462109E1,5.802595019E-1
2.198078859E0,1.184447184E-1,1.018086243E1,5.653043389E-1
2.200315736E0,6.580262631E-2,1.015334511E1,5.551348329E-1
2.202552553E0,-5.982056726E-3,1.014496994E1,5.168496966E-1
2.204789674E0,-7.836493850E-2,1.013180923E1,5.204389095E-1
2.207027711E0,-1.651047617E-1,1.010429192E1,5.198407173E-1
2.209264039E0,-2.656033039E-1,1.009651470E1,5.335994363E-1
2.211499879E0,-3.768695593E-1,1.008814049E1,6.035895348E-1
2.213736330E0,-5.306084156E-1,1.008036327E1,6.598208547E-1
2.215969301E0,-6.699903607E-1,1.008694363E1,7.154539824E-1
2.218195314E0,-7.704889178E-1,1.010728264E1,7.908278704E-1
2.220446596E0,-8.578268886E-1,1.007019424E1,8.715856671E-1
2.222680177E0,-9.834501147E-1,1.004746246E1,9.702895880E-1
2.224910340E0,-1.061216831E0,1.004806042E1,1.055234790E0
2.227158571E0,-1.152742267E0,1.003011417E1,1.131206870E0
2.229393800E0,-1.225125194E0,1.002652550E1,1.182652593E0
2.231633973E0,-1.283151150E0,1.001276588E1,1.239482164E0
2.233867128E0,-1.350748420E0,1.001336479E1,1.267597795E0
2.236104127E0,-1.423131227E0,1.001456070E1,1.314257860E0
2.238341188E0,-1.480558991E0,1.002951622E1,1.361516118E0
2.240577699E0,-1.542772412E0,1.003011417E1,1.370489120E0
2.242814637E0,-1.576271892E0,1.004028416E1,1.389033556E0
2.245048707E0,-1.586441398E0,1.003489971E1,1.460818172E0
2.247276674E0,-1.591825247E0,1.002114105E1,1.470389485E0
2.249524782E0,-1.591825247E0,1.001097202E1,1.503889084E0
2.251761781E0,-1.587637782E0,9.987043381E0,1.518245935E0
2.254001466E0,-1.573280931E0,9.963115692E0,1.494317770E0
2.256235231E0,-1.564307809E0,9.948758125E0,1.479960799E0
2.258471986E0,-1.564307809E0,9.915258408E0,1.423131227E0
2.260709047E0,-1.545165181E0,9.872187614E0,1.389631748E0
2.262946657E0,-1.521835208E0,9.829116821E0,1.371087432E0
2.265182435E0,-1.502692580E0,9.795618057E0,1.319043517E0
2.267419069E0,-1.469193101E0,9.771091461E0,1.262213945E0
2.269655824E0,-1.459621787E0,9.733404160E0,1.214357495E0
2.271892701E0,-1.430907965E0,9.695118904E0,1.119242787E0
2.274129701E0,-1.363908887E0,9.669994354E0,1.072582722E0
2.276366273E0,-1.301097274E0,9.659825325E0,1.001396298E0
2.278604371E0,-1.200598717E0,9.601799011E0,9.164510965E-1
2.280840822E0,-1.123430252E0,9.571888924E0,8.315058947E-1
2.283076478E0,-1.032503009E0,9.547362328E0,7.704889178E-1
2.285312746E0,-9.266205430E-1,9.526425362E0,7.094719410E-1
2.287549623E0,-8.542376757E-1,9.540184021E0,6.382854581E-1
2.289786989E0,-7.345965505E-1,9.514460564E0,6.017948985E-1
2.292023805E0,-6.484549642E-1,9.489934921E0,5.545366406E-1
2.294260316E0,-5.521438122E-1,9.464810371E0,4.983053207E-1
2.296497193E0,-4.660021961E-1,9.449256897E0,4.612165689E-1
2.298735170E0,-3.894318938E-1,9.414560318E0,4.283152521E-1
2.300970765E0,-3.038884699E-1,9.379864693E0,4.055834413E-1
2.303207460E0,-2.321037948E-1,9.364909172E0,4.013960063E-1
2.305444093E0,-1.507478207E-1,9.339784622E0,3.876372576E-1
2.307680971E0,-9.391828626E-2,9.305088997E0,3.643072546E-1
2.309917848E0,-2.213360928E-2,9.290133476E0,3.367897868E-1
2.312153626E0,5.443671346E-2,9.265008926E0,3.469592929E-1
2.314384949E0,1.304088384E-1,9.235098839E0,3.379862010E-1
2.316617860E0,1.824527234E-1,9.191430092E0,3.529413342E-1
2.318865297E0,2.344966233E-1,9.151947975E0,3.726821244E-1
2.321102663E0,3.008974493E-1,9.103493690E0,3.780659735E-1
2.323341310E0,3.332005441E-1,9.054440498E0,4.737788737E-1
2.325575197E0,3.894318938E-1,9.014959335E0,5.078766346E-1
2.327812074E0,4.414757788E-1,8.999405861E0,5.892325640E-1
2.330048646E0,4.642075896E-1,8.984451294E0,6.849454641E-1
2.332285951E0,4.875376225E-1,8.988637924E0,7.806583643E-1
2.334523256E0,4.965106845E-1,8.997611046E0,8.949156404E-1
2.336759157E0,5.054838061E-1,9.015557289E0,1.019342422E0
2.338995912E0,4.953143001E-1,9.048459053E0,1.171286702E0
2.341232484E0,4.516452849E-1,9.105886459E0,1.314257860E0
2.343469301E0,3.744767308E-1,9.163912773E0,1.456630826E0
2.345706117E0,3.020938635E-1,9.235696793E0,1.655833244E0
2.347943177E0,2.249253243E-1,9.278767586E0,1.859821439E0
2.350178101E0,1.088734269E-1,9.313464165E0,2.026122570E0
2.352405824E0,-6.939185411E-2,9.607182503E0,2.109273195E0
2.354653199E0,-6.699903607E-1,1.073898792E1,1.334596872E0
2.356889955E0,-1.052243710E0,1.094596672E1,3.577269912E-1
2.359129457E0,-9.188438654E-1,1.049970531E1,2.356930375E-1
2.361363588E0,-8.410771489E-1,1.014736271E1,6.759724021E-1
2.363600160E0,-1.000199914E0,9.731011391E0,1.242473125E0
2.365837282E0,-1.280758262E0,9.479166985E0,1.726421595E0
2.368074281E0,-1.481157184E0,9.389435768E0,2.115853310E0
2.370311647E0,-1.508076429E0,9.388239861E0,2.430509567E0
2.372547426E0,-1.460818172E0,9.424730301E0,2.640479803E0
2.374784242E0,-1.423131227E0,9.533005714E0,2.869592667E0
2.377020814E0,-1.369890928E0,9.669994354E0,3.093919754E0
2.379253969E0,-1.322034478E0,9.773484230E0,3.294916868E0
2.381479738E0,-1.286740422E0,9.982855797E0,3.457030535E0
2.383731019E0,-1.247856975E0,1.007737255E1,3.523431301E0
2.385968385E0,-1.232901812E0,1.011984539E1,3.542573929E0
2.388209535E0,-1.190429211E0,1.010010433E1,3.543172121E0
2.390441530E0,-1.133001566E0,1.008514881E1,3.529413462E0
2.392675966E0,-1.075573802E0,1.001276588E1,3.473181963E0
2.394905580E0,-1.033101201E0,9.955338478E0,3.401995659E0
2.397151979E0,-1.018744230E0,9.883553505E0,3.311666489E0
2.399388734E0,-1.004985452E0,9.812367439E0,3.197409153E0
2.401627625E0,-1.009172916E0,9.769894600E0,3.111267567E0
2.403862428E0,-9.661021233E-1,9.731011391E0,3.045464993E0
2.406100160E0,-9.326026440E-1,9.702297211E0,2.969492912E0
2.408335817E0,-8.799605370E-1,9.687342644E0,2.927020311E0
2.410572694E0,-7.884350419E-1,9.681360245E0,2.898904562E0
2.412806398E0,-7.076773047E-1,9.661021233E0,2.909672260E0
2.415034242E0,-6.412764788E-1,9.621540070E0,2.948555708E0
2.417279786E0,-5.754738450E-1,9.572486877E0,2.977867842E0
2.419507814E0,-5.042873621E-1,9.571290970E0,3.059223652E0
2.421760683E0,-4.043870270E-1,9.512067795E0,3.108276606E0
2.423994508E0,-2.859423161E-1,9.476176262E0,3.161516905E0
2.426233095E0,-1.962114573E-1,9.417551994E0,3.224328518E0
2.428466615E0,-9.092725813E-2,9.396614075E0,3.235096216E0
2.430703126E0,-5.982056609E-4,9.352347374E0,3.231507063E0
2.432940248E0,8.973085135E-2,9.312267303E0,3.232105255E0
2.435177064E0,1.992024779E-1,9.282357216E0,3.233301640E0
2.437413881E0,2.949153781E-1,9.247062683E0,3.209971666E0
2.439650758E0,3.804588020E-1,9.202795982E0,3.201596737E0
2.441888490E0,4.761717021E-1,9.182456970E0,3.183650494E0
2.444124086E0,5.533402562E-1,9.181260109E0,3.169891834E0
2.446359254E0,6.155536175E-1,9.171091080E0,3.113062143E0
2.448590639E0,6.873382926E-1,9.165707588E0,3.099303484E0
2.450834596E0,7.603194118E-1,9.207581520E0,3.057429075E0
2.453071412E0,8.093722463E-1,9.245268822E0,3.005385160E0
2.455309877E0,8.536394835E-1,9.293125153E0,2.929413080E0
2.457545045E0,9.212366939E-1,9.296713829E0,2.867797852E0
2.459782777E0,9.894321561E-1,9.320044518E0,2.773281336E0
2.462018312E0,9.571290612E-1,9.349954605E0,2.672782898E0
2.464254945E0,9.206385016E-1,9.399007797E0,2.548356056E0
2.466491457E0,8.548358679E-1,9.424730301E0,2.423331022E0
2.468728578E0,7.884350419E-1,9.425926208E0,2.303689957E0
2.470965455E0,7.184450030E-1,9.480362892E0,2.174477577E0
2.473199342E0,6.717849374E-1,9.500701904E0,2.073380709E0
2.475427674E0,6.000002623E-1,9.482755661E0,1.992024899E0
2.477677125E0,5.096712112E-1,9.474979401E0,1.910070658E0
2.479912721E0,4.570291340E-1,9.442676544E0,1.847857237E0
2.482149781E0,3.948157430E-1,9.410373688E0,1.775474429E0
2.484375185E0,3.188436031E-1,9.397810936E0,1.707877159E0
2.486622682E0,2.662015259E-1,9.360722542E0,1.636092424E0
2.488859926E0,1.896311939E-1,9.337990761E0,1.569093466E0
2.491099428E0,1.698904037E-1,9.295517921E0,1.544566989E0
2.493334657E0,1.633101404E-1,9.214161873E0,1.592423439E0
2.495571046E0,1.058823988E-1,9.181859016E0,1.563709617E0
2.497806703E0,4.845465720E-2,9.168100357E0,1.558325768E0
2.500043275E0,-1.854437590E-2,9.193224907E0,1.533799291E0
2.502280092E0,-7.118647546E-2,9.174679756E0,1.537986755E0
2.504517213E0,-1.435693651E-1,9.151947975E0,1.537388563E0
2.506753969E0,-2.249253243E-1,9.167501450E0,1.560718536E0
2.508987733E0,-2.536391914E-1,9.192028046E0,1.603191137E0
2.511213380E0,-3.397808075E-1,9.216554642E0,1.630708575E0
2.513451478E0,-4.402793646E-1,9.242277145E0,1.634896040E0
2.515694215E0,-5.790630579E-1,9.291330338E0,1.752742529E0
2.517940614E0,-6.855437160E-1,9.245268822E0,1.780260086E0
2.520177126E0,-8.147560954E-1,9.256634712E0,1.755135417E0
2.522412904E0,-8.907282352E-1,9.234500885E0,1.692323804E0
2.524648012E0,-9.720842242E-1,9.193224907E0,1.596610904E0
2.526884828E0,-1.054038405E0,9.141778946E0,1.519442320E0
2.529121705E0,-1.139581800E0,9.115457535E0,1.385444283E0
2.531359437E0,-1.215553880E0,9.088538170E0,1.269990563E0
2.533595033E0,-1.276570916E0,9.080163956E0,1.126421213E0
2.535831910E0,-1.357328653E0,9.058628082E0,9.637092948E-1
2.538068422E0,-1.417747378E0,9.069993973E0,7.531409264E-1
2.540305482E0,-1.493121386E0,9.090931892E0,6.239284873E-1
2.542542054E0,-1.573280931E0,9.116654396E0,5.228317380E-1
2.544778932E0,-1.682752490E0,9.118449211E0,4.217349887E-1
2.547016175E0,-1.782652855E0,9.134600639E0,3.541377485E-1
2.549250734E0,-1.883151412E0,9.122037888E0,3.008974493E-1
2.551478090E0,-1.978864312E0,9.114261627E0,2.763710022E-1
2.553725892E0,-2.088335991E0,9.139984131E0,2.943171859E-1
2.555962709E0,-2.193620205E0,9.174679756E0,3.266202807E-1
2.558202333E0,-2.322832584E0,9.195617676E0,3.493520916E-1
2.560436342E0,-2.461616278E0,9.245268822E0,3.954139352E-1
2.562671998E0,-2.605185747E0,9.304491043E0,4.510470629E-1
2.564906617E0,-2.729612350E0,9.315856934E0,5.024927258E-1
2.567147767E0,-2.849851847E0,9.364909172E0,6.059823632E-1
2.569383424E0,-2.969492912E0,9.394820213E0,7.052844763E-1
2.571621095E0,-3.052045345E0,9.391230583E0,8.093722463E-1
2.573856752E0,-3.135794163E0,9.348159790E0,9.900303483E-1
2.576093812E0,-3.190829039E0,9.290732384E0,1.204187989E0
2.578327578E0,-3.216551781E0,9.251849174E0,1.384846091E0
2.580555971E0,-3.261417150E0,9.232706070E0,1.556531072E0
2.582801698E0,-3.329612732E0,9.251849174E0,1.713261008E0
2.585031617E0,-3.396611691E0,9.309874535E0,1.802991867E0
2.587280457E0,-3.482753277E0,9.344570160E0,1.892722726E0
2.589514283E0,-3.558725595E0,9.426525116E0,1.905883193E0
2.591753663E0,-3.620340586E0,9.461220741E0,1.933998942E0
2.593988160E0,-3.750749588E0,9.467203140E0,2.028515339E0
2.596224977E0,-3.907479286E0,9.377471924E0,2.365305185E0
2.598461427E0,-3.812364578E0,9.461220741E0,2.542972326E0
2.600698304E0,-3.815953970E0,9.565906525E0,2.638087034E0
2.602936097E0,-3.876971006E0,9.652647018E0,2.646461725E0
2.605171937E0,-4.000799656E0,9.702896118E0,2.593221426E0
2.607408571E0,-4.162314892E0,9.744172096E0,2.496312141E0
2.609645143E0,-4.313661098E0,9.780064583E0,2.365903378E0
2.611882387E0,-4.466203690E0,9.783055305E0,2.221735716E0
2.614116762E0,-4.575077057E0,9.814162254E0,2.101496458E0
2.616343995E0,-4.654638290E0,9.863813400E0,2.000399828E0
2.618581544E0,-4.663012981E0,9.949954987E0,1.976471543E0
2.620830140E0,-4.575077057E0,1.006839943E1,1.981855392E0
2.623068238E0,-4.146761417E0,1.052542877E1,2.008774519E0
2.625305666E0,-3.364906788E0,1.125523949E1,1.952543259E0
2.627539613E0,-3.330809116E0,1.096271706E1,1.972284079E0
2.629776246E0,-3.283550978E0,1.065105152E1,2.078166485E0
2.632011110E0,-3.265006542E0,1.035314560E1,2.217548370E0
2.634241517E0,-3.245265722E0,1.010847950E1,2.341975212E0
2.636488160E0,-3.206980467E0,9.896714211E0,2.519043922E0
2.638724428E0,-3.200998545E0,9.714262009E0,2.643470764E0
2.640962403E0,-3.203989506E0,9.565308571E0,2.767299414E0
2.643193605E0,-3.207578659E0,9.383454323E0,2.886940479E0
2.645418763E0,-3.177070379E0,9.229117393E0,3.001796007E0
2.647658693E0,-3.132204771E0,9.084351540E0,3.141177893E0
2.649907106E0,-3.053839922E0,8.953344345E0,3.251247883E0
2.652147096E0,-2.950350285E0,8.865407944E0,3.362514019E0
2.654384157E0,-2.866003275E0,8.825327873E0,3.486940861E0
2.656618776E0,-2.781058073E0,8.790034294E0,3.588037491E0
2.658854310E0,-2.642872572E0,8.801400185E0,3.746562004E0
2.661091127E0,-2.533401012E0,8.832506180E0,3.890729666E0
2.663327699E0,-2.404786825E0,8.872586250E0,4.039682865E0
2.665564760E0,-2.237887383E0,8.883952141E0,4.202992916E0
2.667801332E0,-2.062613010E0,8.875576973E0,4.419543266E0
2.670038148E0,-1.892722726E0,8.852247238E0,4.654638290E0
2.672275209E0,-1.732403636E0,8.839086533E0,4.966303349E0
2.674512819E0,-1.586441398E0,8.830113411E0,5.320441246E0
2.676748658E0,-1.508674622E0,8.779864311E0,5.654838085E0
2.678985414E0,-1.478166223E0,8.748757362E0,5.994020939E0
2.681219728E0,-1.509871125E0,8.662017822E0,6.241677761E0
2.683450685E0,-1.599003673E0,8.576474190E0,6.431907177E0
2.685695314E0,-1.702493310E0,8.471788406E0,6.569494724E0
2.687932252E0,-1.805982947E0,8.301300049E0,6.664011002E0
2.690171571E0,-1.925025821E0,8.077570915E0,6.734599113E0
2.692407106E0,-2.014158487E0,7.877770424E0,6.762714863E0
2.694642701E0,-2.117049932E0,7.693522930E0,6.695715904E0
2.696879518E0,-2.219342947E0,7.527820110E0,6.613761902E0
2.699116273E0,-2.269592285E0,7.347161770E0,6.599404812E0
2.701353151E0,-2.296511650E0,7.194021225E0,6.666403770E0
2.703589967E0,-2.290529490E0,7.035496712E0,6.828517437E0
2.705827027E0,-2.293520451E0,6.938587666E0,7.033702374E0
2.708065065E0,-2.325823545E0,6.823133945E0,7.272386074E0
2.710297792E0,-2.371885538E0,6.689135551E0,7.424330235E0
2.712522706E0,-2.404188633E0,6.574280262E0,7.629515171E0
2.714773134E0,-2.435893536E0,6.454041004E0,7.777271748E0
2.717010072E0,-2.471187592E0,6.372684956E0,7.915457249E0
2.719250917E0,-2.488535643E0,6.233901024E0,8.024929047E0
2.721484010E0,-2.487937450E0,6.065805435E0,8.206783295E0
2.723720826E0,-2.486740828E0,5.897709846E0,8.373682976E0
2.725957887E0,-2.429911375E0,5.623133183E0,8.589036942E0
2.728195680E0,-2.312064886E0,5.328217983E0,8.852845192E0
2.730431215E0,-2.088335991E0,5.008177757E0,9.074779510E0
2.732667848E0,-1.795215130E0,4.797011375E0,9.211769104E0
2.734904603E0,-1.518245935E0,4.744967461E0,9.228518486E0
2.737141664E0,-1.316052437E0,4.789832592E0,9.192028046E0
2.739378297E0,-1.146162033E0,4.907679081E0,9.102895737E0
2.741614992E0,-1.013360381E0,5.102096081E0,8.998807907E0
2.743851869E0,-8.757730722E-1,5.272584915E0,8.942576408E0
2.746089662E0,-7.208378315E-1,5.418546677E0,8.958129883E0
2.748325197E0,-5.467599630E-1,5.568696499E0,9.016754150E0
2.750561891E0,-3.918247223E-1,5.713462353E0,9.136993408E0
2.752795655E0,-2.626122832E-1,5.816353798E0,9.271589279E0
2.755023744E0,-1.423729509E-1,5.937789440E0,9.444471359E0
2.757272340E0,-4.606183618E-2,6.002993584E0,9.554540634E0
2.759509096E0,5.443671346E-2,6.077171326E0,9.693922997E0
2.761749147E0,1.399801224E-1,6.094519138E0,9.771091461E0
2.763983705E0,2.015953064E-1,6.088537216E0,9.862018585E0
2.766219301E0,2.973082066E-1,6.096313953E0,9.924830437E0
2.768456117E0,3.631108403E-1,6.052046776E0,9.973284721E0
2.770692689E0,3.960121572E-1,6.004190445E0,9.935597420E0
2.772929811E0,3.583251834E-1,5.976074696E0,9.873384476E0
2.775166627E0,3.104687333E-1,5.962913990E0,9.781859398E0
2.777403627E0,2.871387303E-1,5.953940868E0,9.691530228E0
2.779641297E0,2.213360965E-1,5.974878311E0,9.590433121E0
2.781878236E0,1.555334777E-1,5.981458187E0,9.399007797E0
2.784113588E0,8.614161611E-2,6.026323795E0,9.231510162E0
2.786350221E0,3.529413417E-2,6.066403389E0,9.054440498E0
2.788586916E0,-2.991028316E-2,6.116054535E0,8.863015175E0
2.790824098E0,-1.082752272E-1,6.195017815E0,8.652446747E0
2.793057862E0,-2.297109663E-1,6.298507214E0,8.417351723E0
2.795285463E0,-3.320041299E-1,6.387042046E0,8.225926399E0
2.797534486E0,-3.960121572E-1,6.484549522E0,8.034500122E0
2.799772035E0,-4.935196638E-1,6.568298340E0,7.799405575E0
2.802010988E0,-6.011967063E-1,6.638288021E0,7.555337429E0
2.804245057E0,-7.034898400E-1,6.702894211E0,7.316055298E0
2.806481508E0,-8.015955687E-1,6.743572235E0,7.076174736E0
2.808718080E0,-9.002995491E-1,6.751348972E0,6.841678143E0
2.810954835E0,-9.942178130E-1,6.768098831E0,6.607181549E0
2.813188783E0,-1.078564763E0,6.760920525E0,6.401398659E0
2.815417420E0,-1.182652593E0,6.748956203E0,6.176473618E0
2.817666627E0,-1.287338614E0,6.723233223E0,6.003592014E0
2.819902162E0,-1.381256819E0,6.711269379E0,5.788238049E0
2.822141603E0,-1.490130305E0,6.699305058E0,5.577669621E0
2.824375246E0,-1.599003673E0,6.701697826E0,5.404788017E0
2.826612367E0,-1.716850281E0,6.714260101E0,5.227719307E0
2.828849183E0,-1.791625977E0,6.735197544E0,5.035695076E0
2.831084718E0,-1.852642894E0,6.746563435E0,4.887340069E0
2.833318666E0,-1.932802439E0,6.748358250E0,4.715056896E0
2.835560365E0,-1.950150490E0,6.783053875E0,4.543372154E0
2.837796266E0,-1.972882271E0,6.817749977E0,4.438087940E0
2.840034181E0,-1.962114573E0,6.818347931E0,4.285545349E0
2.842269899E0,-1.951945066E0,6.827919483E0,4.204787731E0
2.844506654E0,-1.911865234E0,6.861418724E0,4.090530396E0
2.846743226E0,-1.911865234E0,6.847062111E0,4.028316975E0
2.848980226E0,-1.896311998E0,6.852446079E0,3.952344894E0
2.851218080E0,-1.872383714E0,6.827919483E0,3.905086517E0
2.853454713E0,-1.886740685E0,6.804589272E0,3.862015724E0
2.855690492E0,-1.886740685E0,6.776473522E0,3.809373617E0
2.857926820E0,-1.892124534E0,6.742974281E0,3.780659676E0
2.860161623E0,-1.911267042E0,6.723831654E0,3.790230989E0
2.862392579E0,-1.954936147E0,6.701099873E0,3.775874138E0
2.864637330E0,-1.993221283E0,6.687341213E0,3.784847260E0
2.866874330E0,-2.042274237E0,6.658627033E0,3.827319860E0
2.869113221E0,-2.085943222E0,6.616154671E0,3.869792461E0
2.871349000E0,-2.125424623E0,6.583253384E0,3.903291941E0
2.873584535E0,-2.121835470E0,6.539584160E0,3.984049797E0
2.875821412E0,-2.170888424E0,6.506682873E0,4.060021877E0
2.878057924E0,-2.196012974E0,6.449255466E0,4.122235298E0
2.880294984E0,-2.215753794E0,6.434898376E0,4.198207378E0
2.882531617E0,-2.227119684E0,6.363113403E0,4.250849247E0
2.884768617E0,-2.213959217E0,6.295516491E0,4.313062668E0
2.887005433E0,-2.177468538E0,6.246463299E0,4.437489510E0
2.889242982E0,-2.135594130E0,6.250052929E0,4.637888432E0
2.891478517E0,-2.109273195E0,6.162714481E0,4.752744198E0
2.893715394E0,-2.130210400E0,6.038886070E0,4.714458942E0
2.895951967E0,-2.139781713E0,5.962913990E0,4.628915310E0
2.898190370E0,-2.059622049E0,5.837889194E0,4.524827480E0
2.900430971E0,-1.998605132E0,5.708078384E0,4.454239368E0
2.902662477E0,-1.980060697E0,5.598606586E0,4.354339123E0
2.904899781E0,-1.966302037E0,5.531607628E0,4.287938118E0
2.907135987E0,-1.947159410E0,5.464608669E0,4.197608948E0
2.909372926E0,-1.971087694E0,5.455635548E0,4.168895245E0
2.911609620E0,-2.042274237E0,5.528616905E0,4.220340729E0
2.913845949E0,-2.327618122E0,5.766104221E0,4.345963955E0
2.916083131E0,-2.737389088E0,6.072385788E0,4.627718925E0
2.918320131E0,-3.253640652E0,6.332006931E0,4.975276470E0
2.920557008E0,-3.812962770E0,6.601797581E0,5.318048477E0
2.922791872E0,-4.382454872E0,6.795616150E0,5.560321808E0
2.925019594E0,-4.889134884E0,6.927221775E0,5.693721294E0
2.927264283E0,-5.324030399E0,7.052844524E0,5.780461311E0
2.929492006E0,-5.720640659E0,7.140182972E0,5.809773445E0
2.931743226E0,-6.044867992E0,7.198208809E0,5.725426197E0
2.933977357E0,-6.344569206E0,7.241877556E0,5.522634506E0
2.936217104E0,-6.572485447E0,7.246663570E0,5.239085197E0
2.938451051E0,-6.775277138E0,7.270591736E0,4.903491974E0
2.940688111E0,-6.915855408E0,7.265207767E0,4.463212490E0
2.942925660E0,-6.936194420E0,7.224529743E0,4.000799656E0
2.945161439E0,-6.694519520E0,7.151548862E0,3.592823267E0
2.947397951E0,-6.287739754E0,7.064808846E0,3.425325632E0
2.949634340E0,-6.058028698E0,6.951747894E0,3.270390272E0
2.951871644E0,-5.818148136E0,6.825526714E0,3.010170937E0
2.954108461E0,-5.630909920E0,6.689733982E0,2.702693224E0
2.956345094E0,-5.481358528E0,6.569494724E0,2.394019127E0
2.958582154E0,-5.283950806E0,6.486942291E0,2.100300074E0
2.960819887E0,-5.063212872E0,6.403193474E0,1.878365755E0
2.963055543E0,-4.850849628E0,6.372684956E0,1.661217093E0
2.965289369E0,-4.630111694E0,6.331408501E0,1.524826288E0
2.967516847E0,-4.453042984E0,6.257829189E0,1.421934843E0
2.969765687E0,-4.319045067E0,6.217749596E0,1.365703583E0
2.972002504E0,-4.208974838E0,6.211169243E0,1.390828133E0
2.974242372E0,-4.133601189E0,6.166304111E0,1.467996716E0
2.976476625E0,-4.050450325E0,6.097510338E0,1.668993831E0
2.978713746E0,-3.986442566E0,6.056233883E0,2.027318954E0
2.980949769E0,-3.947559118E0,5.967699528E0,2.394617319E0
2.983186281E0,-3.860819340E0,5.921638012E0,2.819941521E0
2.985422975E0,-3.683750391E0,5.839683533E0,3.303291559E0
2.987659974E0,-3.477369547E0,5.781657696E0,3.782454491E0
2.989896852E0,-3.266801119E0,5.690132141E0,4.256233215E0
2.992133912E0,-3.045464993E0,5.651248932E0,4.701896667E0
2.994370424E0,-2.800200701E0,5.616552830E0,5.129015446E0
2.996603090E0,-2.414358139E0,5.657230854E0,5.451447964E0
2.998843812E0,-2.009970903E0,5.922235966E0,5.702694416E0
3.001080385E0,-1.747956991E0,6.252445698E0,5.857629776E0
3.003315614E0,-1.677368641E0,6.537789822E0,5.938387394E0
3.005540040E0,-1.878963947E0,6.507281303E0,5.941378593E0
3.007777039E0,-2.100898266E0,6.381658077E0,5.910870075E0
3.010016542E0,-2.226521492E0,6.349953175E0,5.947958946E0
3.012268068E0,-2.346760750E0,6.389434814E0,6.142375946E0
3.014505007E0,-2.438884497E0,6.513263226E0,6.479763508E0
3.016740724E0,-2.827120066E0,6.563512325E0,7.191628456E0
3.018974855E0,-3.288934708E0,6.605985165E0,8.708678246E0
3.021211488E0,-2.861815929E0,6.891329288E0,9.727422714E0
3.023448365E0,-2.260020971E0,6.817151546E0,9.261420250E0
3.025685121E0,-1.648056626E0,7.847859859E0,8.850452423E0
3.027921937E0,-1.783849239E0,8.527421951E0,9.148359299E0
3.030159059E0,-2.608176708E0,8.210372925E0,9.150752068E0
3.032396547E0,-3.187838078E0,7.825128078E0,8.449654579E0
3.034632081E0,-3.541377544E0,7.395018578E0,7.555337429E0
3.036868715E0,-3.844069481E0,6.915257454E0,6.824330330E0
3.039105531E0,-4.144368649E0,6.558128834E0,6.531209469E0
3.041342653E0,-4.290330887E0,6.223731518E0,6.849454880E0
3.043579469E0,-4.441078663E0,5.839683533E0,7.593024254E0
3.045815980E0,-4.793421745E0,5.560919762E0,8.076375008E0
3.048053102E0,-5.280361176E0,5.381458282E0,8.134400368E0
3.050290834E0,-5.861218929E0,5.242674351E0,7.966903210E0
3.052526490E0,-6.401398659E0,5.232504845E0,7.833503246E0
3.054763307E0,-6.865606308E0,5.296513081E0,7.914859295E0
3.056999818E0,-7.207181931E0,5.357530117E0,8.149953842E0
3.059236818E0,-7.398607731E0,5.498108387E0,8.419744492E0
3.061470582E0,-7.432106972E0,5.650052547E0,8.700901031E0
3.063700013E0,-7.350750923E0,5.748157978E0,8.901300430E0
3.065948304E0,-7.149155617E0,5.897709846E0,9.065208435E0
3.068184938E0,-6.846463680E0,6.007181168E0,9.192028046E0
3.070423097E0,-6.524629116E0,6.145366669E0,9.337391853E0
3.072657045E0,-6.169294834E0,6.259026051E0,9.407382011E0
3.074893861E0,-5.808577061E0,6.382256031E0,9.510871887E0
3.077130922E0,-5.458626747E0,6.481558323E0,9.623334885E0
3.079367494E0,-5.156532764E0,6.591030121E0,9.763913155E0
3.081604310E0,-4.858626366E0,6.662814617E0,9.852447510E0
3.083841432E0,-4.614558697E0,6.701697826E0,9.926624298E0
3.086079225E0,-4.341178417E0,6.759125710E0,9.990633011E0
3.088314821E0,-4.130012035E0,6.784848690E0,9.997213364E0
3.090551698E0,-3.947559118E0,6.829713821E0,1.000379372E1
3.092785402E0,-3.870988846E0,6.795616150E0,9.952347755E0
3.095013307E0,-3.851846218E0,6.752545357E0,9.866804123E0
3.097261537E0,-3.937389612E0,6.692126751E0,9.727422714E0
3.099496522E0,-4.071387768E0,6.637690067E0,9.592825890E0
3.101738405E0,-4.276572227E0,6.598208427E0,9.433703423E0
3.103973207E0,-4.520041943E0,6.579065800E0,9.226723671E0
3.106209535E0,-4.738985062E0,6.531209469E0,8.991030693E0
3.108445680E0,-5.023731232E0,6.546164513E0,8.711668968E0
3.110682130E0,-5.366502762E0,6.600003242E0,8.522636414E0
3.112919008E0,-5.727818966E0,6.683153629E0,8.318648338E0
3.115156129E0,-6.080162525E0,6.760920525E0,8.143971443E0
3.117392946E0,-6.417550564E0,6.848258495E0,7.939983845E0
3.119630067E0,-6.744170666E0,6.997809887E0,7.770093441E0
3.121867494E0,-7.024729252E0,7.083951473E0,7.600203037E0
3.124103151E0,-7.057630539E0,6.971488953E0,7.319046497E0
3.126339234E0,-7.383054256E0,7.234699249E0,7.215556622E0
3.128572755E0,-7.671389580E0,7.460222721E0,7.078567505E0
3.130813356E0,-7.810771465E0,7.578069210E0,6.796214581E0
3.133050294E0,-7.922635555E0,7.704888821E0,6.618547440E0
3.135288088E0,-8.024929047E0,7.869993687E0,6.516852379E0
3.137525026E0,-8.085348129E0,7.957331657E0,6.397211552E0
3.139761476E0,-8.158926964E0,8.102695465E0,6.281757832E0
3.141997194E0,-8.223533630E0,8.223533630E0,6.228517532E0
3.144234010E0,-8.240880966E0,8.314460754E0,6.166304111E0
3.146470766E0,-8.196614265E0,8.367102623E0,6.123831272E0
3.148707643E0,-8.100900650E0,8.394021988E0,6.153143406E0
3.150944398E0,-7.975875854E0,8.425128937E0,6.196812630E0
3.153181215E0,-7.837092400E0,8.418548584E0,6.184250355E0
3.155418336E0,-7.707281590E0,8.445467949E0,6.190232277E0
3.157655824E0,-7.610372543E0,8.501100540E0,6.147759438E0
3.159891420E0,-7.465606689E0,8.519046783E0,6.053841114E0
3.162128236E0,-7.364510059E0,8.479565620E0,5.897111416E0
3.164361330E0,-7.340581894E0,8.379665375E0,5.749952793E0
3.166587953E0,-7.356733322E0,8.241478920E0,5.654838085E0
3.168838502E0,-7.377072334E0,8.065607071E0,5.516652584E0
3.171075502E0,-7.440482140E0,7.899903774E0,5.368297577E0
3.173315797E0,-7.503293514E0,7.758727551E0,5.143970490E0
3.175548280E0,-7.532605648E0,7.625925541E0,4.991427898E0
3.177779054E0,-7.532605648E0,7.564310551E0,4.886742115E0
3.180022340E0,-7.532605648E0,7.526025295E0,4.838885784E0
3.182259157E0,-7.523632526E0,7.521239758E0,4.867599487E0
3.184497804E0,-7.557730198E0,7.487740040E0,4.895715237E0
3.186732850E0,-7.612166882E0,7.459624767E0,5.019543648E0
3.188969789E0,-7.689933777E0,7.431509018E0,5.166702271E0
3.191206605E0,-7.715058327E0,7.416553974E0,5.290530682E0
3.193441285E0,-7.735995770E0,7.373483181E0,5.400002480E0
3.195668214E0,-7.761120319E0,7.358527660E0,5.552545071E0
3.197916627E0,-7.758129120E0,7.338787079E0,5.729015827E0
3.200153383E0,-7.716254711E0,7.313662529E0,5.867799282E0
3.202393129E0,-7.679764271E0,7.264609337E0,5.968297958E0
3.204627137E0,-7.639086246E0,7.210172653E0,6.173482418E0
3.206864320E0,-7.607979774E0,7.141977310E0,6.336194515E0
3.209102052E0,-7.581658363E0,7.068996429E0,6.522236347E0
3.211337953E0,-7.527221680E0,7.000202656E0,6.785446644E0
3.213567140E0,-7.434499741E0,6.911668301E0,7.029514790E0
3.215796022E0,-7.313662529E0,6.793223381E0,7.293323517E0
3.218033021E0,-7.106683254E0,6.678966045E0,7.548159122E0
3.220271913E0,-6.931408882E0,6.618547440E0,7.711469173E0
3.222511781E0,-6.741777897E0,6.543173313E0,7.808976650E0
3.224746461E0,-6.436692715E0,6.509075642E0,7.926225185E0
3.226984620E0,-6.082555294E0,6.489335060E0,7.957930088E0
3.229220522E0,-5.723631859E0,6.474380016E0,7.990232944E0
3.231456910E0,-5.364708424E0,6.478567123E0,8.021938324E0
3.233693117E0,-4.980660439E0,6.506084919E0,8.020741463E0
3.235930055E0,-4.634897232E0,6.529414654E0,7.980661869E0
3.238167299E0,-4.299304008E0,6.553342819E0,7.926823139E0
3.240403932E0,-4.015754700E0,6.601797581E0,7.929215908E0
3.242640687E0,-3.709473372E0,6.587440968E0,7.941778183E0
3.244877504E0,-3.512663603E0,6.598806858E0,7.919644833E0
3.247115236E0,-3.326023579E0,6.572485447E0,7.873582840E0
3.249350587E0,-3.186043262E0,6.561119556E0,7.765307903E0
3.251590517E0,-3.114258766E0,6.536593437E0,7.709076405E0
3.253839112E0,-3.080160856E0,6.512664795E0,7.594819069E0
3.256075807E0,-3.080160856E0,6.484549522E0,7.542177200E0
3.258312624E0,-3.069991350E0,6.489335060E0,7.494918823E0
3.260546266E0,-3.113062143E0,6.513861656E0,7.508677483E0
3.262780092E0,-3.117847919E0,6.528218269E0,7.527820110E0
3.265009096E0,-3.117249727E0,6.580262184E0,7.584649563E0
3.267256593E0,-3.074178934E0,6.598806858E0,7.613961697E0
3.269493348E0,-3.001796007E0,6.621538639E0,7.576274872E0
3.271732972E0,-2.977269650E0,6.616752625E0,7.471588612E0
3.273966859E0,-3.024527788E0,6.580262184E0,7.371089935E0
3.276200075E0,-3.072384357E0,6.542575359E0,7.284948349E0
3.278426088E0,-3.125624657E0,6.505486488E0,7.246065140E0
3.280678590E0,-3.211766243E0,6.473781586E0,7.178467751E0
3.282915162E0,-3.287738323E0,6.489335060E0,7.121040344E0
3.285154603E0,-3.358326674E0,6.538986206E0,7.048657417E0
3.287387269E0,-3.375674486E0,6.553941250E0,6.914659023E0
3.289624086E0,-3.422334671E0,6.622136593E0,6.814160824E0
3.291861146E0,-3.468396425E0,6.671189308E0,6.728019238E0
3.294098024E0,-3.341576815E0,6.832107067E0,6.680760860E0
3.296334779E0,-3.427718401E0,6.862017155E0,6.728019238E0
3.298571656E0,-3.638885021E0,6.807580471E0,6.687939167E0
3.300809388E0,-3.849453449E0,6.777669907E0,6.638288021E0
3.303044984E0,-3.993621111E0,6.699305058E0,6.555736065E0
3.305281862E0,-4.161716938E0,6.644868374E0,6.468996048E0
3.307518373E0,-4.257429600E0,6.584449768E0,6.334399700E0
3.309755433E0,-4.362713814E0,6.515058041E0,6.186044693E0
3.311989137E0,-4.453042984E0,6.403193474E0,5.922834396E0
3.314215272E0,-4.372883320E0,6.111867428E0,5.585446358E0
3.316457582E0,-3.875774384E0,5.456233978E0,5.109872818E0
3.318703492E0,-4.031308174E0,5.526223660E0,4.922036171E0
3.320942140E0,-4.231108665E0,5.615356445E0,4.910670280E0
3.323177919E0,-4.266402721E0,5.440082073E0,4.758127689E0
3.325409486E0,-4.306482315E0,5.423332691E0,4.395017147E0
3.327637758E0,-4.393820763E0,5.488536835E0,4.003192425E0
3.329886354E0,-4.509872437E0,5.516054630E0,3.620938778E0
3.332123109E0,-4.679762840E0,5.525027275E0,3.333201885E0
3.334362916E0,-4.813162804E0,5.489733219E0,3.131606579E0
3.336597719E0,-4.936393261E0,5.449055195E0,2.930011272E0
3.338833314E0,-5.060820103E0,5.417948723E0,2.819343328E0
3.341070192E0,-5.160121918E0,5.449055195E0,2.746960402E0
3.343306581E0,-5.216951370E0,5.502295494E0,2.751147747E0
3.345543275E0,-5.230710506E0,5.597410202E0,2.831905603E0
3.347780336E0,-5.244469166E0,5.688337803E0,2.917448997E0
3.350017457E0,-5.224728107E0,5.778666496E0,3.012563705E0
3.352255555E0,-5.176273346E0,5.854040623E0,3.099303484E0
3.354491762E0,-5.156532764E0,5.944369793E0,3.156133175E0
3.356727418E0,-5.135595798E0,6.063412666E0,3.175275564E0
3.358964174E0,-5.143970490E0,6.159125328E0,3.212962627E0
3.361200990E0,-5.166702271E0,6.235695839E0,3.184248686E0
3.363437867E0,-5.200201988E0,6.265007973E0,3.241078377E0
3.365674623E0,-5.220541000E0,6.217151642E0,3.284149170E0
3.367911439E0,-5.246263504E0,6.121438503E0,3.321835995E0
3.370148561E0,-5.267200947E0,6.035895348E0,3.360121250E0
3.372386049E0,-5.249852657E0,5.920441628E0,3.393620729E0
3.374621705E0,-5.271388054E0,5.772684574E0,3.412763357E0
3.376858705E0,-5.273182869E0,5.619544029E0,3.379862070E0
3.379095094E0,-5.241477966E0,5.480760098E0,3.346960783E0
3.381332338E0,-5.238486767E0,5.332405090E0,3.323630571E0
3.383568666E0,-5.216353416E0,5.184050083E0,3.257229805E0
3.385805787E0,-5.213362217E0,5.040481091E0,3.228515863E0
3.388042787E0,-5.219942570E0,4.902295589E0,3.243471146E0
3.390280397E0,-5.202594757E0,4.796412945E0,3.272184849E0
3.392515870E0,-5.243272781E0,4.686343193E0,3.376870871E0
3.394752504E0,-5.260022163E0,4.585844517E0,3.482155085E0
3.396986268E0,-5.310869694E0,4.504488468E0,3.662813187E0
3.399214174E0,-5.327021599E0,4.451248169E0,3.829712629E0
3.401463014E0,-5.343770981E0,4.421936035E0,4.048655987E0
3.403699769E0,-5.388636589E0,4.402195454E0,4.238885403E0
3.405939882E0,-5.399404526E0,4.401597023E0,4.439284325E0
3.408174440E0,-5.419743061E0,4.420141697E0,4.620540619E0
3.410410158E0,-5.431109428E0,4.409972191E0,4.786841869E0
3.412646547E0,-5.398806095E0,4.399204254E0,4.944767952E0
3.414883363E0,-5.361119270E0,4.426722050E0,5.078765869E0
3.417120424E0,-5.352146149E0,4.459623337E0,5.183452129E0
3.419357362E0,-5.313860893E0,4.491926193E0,5.260022163E0
3.421594361E0,-5.294718266E0,4.515256405E0,5.279164791E0
3.423832154E0,-5.260022163E0,4.543970108E0,5.251049519E0
3.426067812E0,-5.188237667E0,4.533202648E0,5.242076397E0
3.428300783E0,-5.169095039E0,4.518845558E0,5.218746185E0
3.430540590E0,-5.130809784E0,4.508676052E0,5.152345181E0
3.432774598E0,-5.111667156E0,4.470390797E0,5.109274387E0
3.435003358E0,-5.078167915E0,4.446462631E0,5.066802025E0
3.437251344E0,-5.035097122E0,4.417150497E0,5.033900738E0
3.439488099E0,-5.011766911E0,4.378865242E0,4.996213913E0
3.441728273E0,-5.011766911E0,4.340580463E0,4.938786030E0
3.443962953E0,-5.021338463E0,4.307679176E0,4.910071850E0
3.446198304E0,-5.035695076E0,4.298107624E0,4.876572609E0
3.448435121E0,-5.050052166E0,4.293920040E0,4.876572609E0
3.450671632E0,-5.079962254E0,4.241278172E0,4.905286312E0
3.452908815E0,-5.103890896E0,4.241876125E0,4.933402061E0
3.455145631E0,-5.157131195E0,4.213760853E0,4.956732273E0
3.457382387E0,-5.215157032E0,4.180859566E0,4.942375183E0
3.459619203E0,-5.315655708E0,4.173082829E0,4.917250633E0
3.461856752E0,-5.426323414E0,4.146163464E0,4.892724037E0
3.464092531E0,-5.536991596E0,4.095315933E0,4.867599487E0
3.466329164E0,-5.660820007E0,4.102494240E0,4.819144726E0
3.468565797E0,-5.757131100E0,4.094119549E0,4.817948341E0
3.470803041E0,-5.824130535E0,4.090530396E0,4.812564373E0
3.473039674E0,-5.910272121E0,4.086941242E0,4.821537495E0
3.475276429E0,-5.958128452E0,4.087539196E0,4.825725079E0
3.477513246E0,-6.044867992E0,4.051048756E0,4.815555573E0
3.479751100E0,-6.092724800E0,4.027718544E0,4.767699242E0
3.481986879E0,-6.165107727E0,3.981058598E0,4.738387108E0
3.484223573E0,-6.227321148E0,3.934996843E0,4.680361271E0
3.486460268E0,-6.256632805E0,3.897309780E0,4.651647091E0
3.488697084E0,-6.285944939E0,3.854837179E0,4.627718925E0
3.490933961E0,-6.295516491E0,3.845266104E0,4.642076015E0
3.493167970E0,-6.253043652E0,3.829712629E0,4.680361271E0
3.495396791E0,-6.186044693E0,3.852444410E0,4.752744198E0
3.497645143E0,-6.081358910E0,3.888336897E0,4.891527653E0
3.499881166E0,-5.933003902E0,3.981058598E0,5.040481091E0
3.502120484E0,-5.769095421E0,4.097708702E0,5.185246468E0
3.504354371E0,-5.624927998E0,4.209573269E0,5.319842815E0
3.506588441E0,-5.527420521E0,4.375276089E0,5.386841774E0
3.508816591E0,-5.425725460E0,4.478765965E0,5.426323414E0
3.511065248E0,-5.322834015E0,4.625326157E0,5.441278458E0
3.513301820E0,-5.235496044E0,4.704887390E0,5.451447964E0
3.515542299E0,-4.879563808E0,4.494318962E0,5.445466042E0
3.517775087E0,-4.560719967E0,4.307679176E0,5.395814896E0
3.520011842E0,-4.798207760E0,4.713860512E0,5.273781300E0
3.522248598E0,-4.944169998E0,4.916652203E0,5.305486202E0
3.524485475E0,-5.025525570E0,4.950749874E0,5.362315655E0
3.526722535E0,-5.285745144E0,5.132604599E0,5.264209747E0
3.528958986E0,-5.441876888E0,5.197210789E0,5.152943611E0
3.531195863E0,-5.580062389E0,5.199603558E0,5.084748268E0
3.533433412E0,-5.841478348E0,5.314459324E0,4.986642361E0
3.535669496E0,-6.116652966E0,5.428716183E0,4.883750916E0
3.537906129E0,-6.306283951E0,5.518447399E0,4.796412945E0
3.540142702E0,-6.376274109E0,5.591428280E0,4.719244480E0
3.542379640E0,-6.561717987E0,5.651846886E0,4.660022259E0
3.544616273E0,-6.771687984E0,5.703292847E0,4.648656368E0
3.546853151E0,-6.909873486E0,5.781657696E0,4.647459984E0
3.549090394E0,-6.985247612E0,5.835496426E0,4.631906509E0
3.551327760E0,-7.085147858E0,5.880361557E0,4.621737003E0
3.553563600E0,-7.204190731E0,5.939583778E0,4.596612453E0
3.555800355E0,-7.270591736E0,5.955137253E0,4.562514782E0
3.558036928E0,-7.308876991E0,5.974279881E0,4.595416069E0
3.560272401E0,-7.328019142E0,6.017350674E0,4.624129772E0
3.562505189E0,-7.270591736E0,6.040680885E0,4.671986103E0
3.564747682E0,-7.207779884E0,6.082555294E0,4.730011940E0
3.566985719E0,-7.178467751E0,6.110671043E0,4.710869789E0
3.569223390E0,-7.168896675E0,6.120242119E0,4.682754040E0
3.571457948E0,-7.173084259E0,6.096313953E0,4.634897232E0
3.573694582E0,-7.167700291E0,6.106483459E0,4.553541660E0
3.575930971E0,-7.158128738E0,6.092126369E0,4.487140656E0
3.578168031E0,-7.152745247E0,6.064010620E0,4.382454872E0
3.580404725E0,-7.128218651E0,6.059225082E0,4.272983074E0
3.582641420E0,-7.113263607E0,6.035296917E0,4.201796532E0
3.584878541E0,-7.117451191E0,6.031109333E0,4.091726780E0
3.587116273E0,-7.131209850E0,6.008377552E0,4.001397610E0
3.589351930E0,-7.131209850E0,5.989234924E0,3.929612875E0
3.591588746E0,-7.149155617E0,6.052046776E0,3.881756544E0
3.593825258E0,-7.167700291E0,6.071787357E0,3.848257065E0
3.596062318E0,-7.172485828E0,6.071787357E0,3.843471289E0
3.598298890E0,-7.225726128E0,6.067600250E0,3.895515203E0
3.600535707E0,-7.287939548E0,6.072983742E0,3.932604074E0
3.602769837E0,-7.375277519E0,5.988038540E0,3.946362734E0
3.604998658E0,-7.452445984E0,5.946164131E0,3.917050600E0
3.607246217E0,-7.472784996E0,5.874977589E0,3.917050600E0
3.609482972E0,-7.473981380E0,5.751149178E0,3.879363775E0
3.611722231E0,-7.407580853E0,5.692524910E0,3.841676712E0
3.613956422E0,-7.345965385E0,5.610570908E0,3.771088600E0
3.616193422E0,-7.313064098E0,5.529214859E0,3.714258909E0
3.618430055E0,-7.280162811E0,5.495715618E0,3.681357622E0
3.620667115E0,-7.265805721E0,5.475974560E0,3.647858143E0
3.622904542E0,-7.261020184E0,5.471189022E0,3.657429457E0
3.625140199E0,-7.236494064E0,5.495117188E0,3.634099483E0
3.627376954E0,-7.207181931E0,5.508875847E0,3.605385542E0
3.629613344E0,-7.235297680E0,5.538187981E0,3.605385542E0
3.631850709E0,-7.220342159E0,5.595615864E0,3.586242914E0
3.634087465E0,-7.195816040E0,5.638088226E0,3.591028690E0
3.636324342E0,-7.194619656E0,5.700301647E0,3.600599766E0
3.638562074E0,-7.179664135E0,5.776273727E0,3.629313707E0
3.640798646E0,-7.111468792E0,5.870790482E0,3.638885021E0
3.643034547E0,-6.975078106E0,6.017350674E0,3.649652719E0
3.645269533E0,-6.814160824E0,6.220142365E0,3.641277790E0
3.647501527E0,-6.464210510E0,6.549753666E0,3.610769272E0
3.649744691E0,-5.971288681E0,6.848258495E0,3.623929977E0
3.651981508E0,-5.621936798E0,7.125227451E0,3.612564087E0
3.654219911E0,-5.428118229E0,7.208976269E0,3.475574970E0
3.656455445E0,-5.286941528E0,7.317251682E0,3.415156126E0
3.658692994E0,-5.113461971E0,7.420143127E0,3.416352510E0
3.660928834E0,-4.780261517E0,7.563114166E0,3.404986620E0
3.663162660E0,-4.496711731E0,7.645068169E0,3.412165165E0
3.665390138E0,-4.405784607E0,7.643871784E0,3.403192043E0
3.667638795E0,-4.377070904E0,7.609774113E0,3.394218922E0
3.669875978E0,-4.426123619E0,7.524828911E0,3.365504980E0
3.672115297E0,-4.263411522E0,7.493722439E0,3.347558975E0
3.674347230E0,-4.268795490E0,7.450651646E0,3.290729284E0
3.676577821E0,-4.116253376E0,7.395616531E0,3.320639610E0
3.678822572E0,-3.911666870E0,7.268796921E0,3.241676569E0
3.681059449E0,-3.704687595E0,7.294519901E0,3.162713289E0
3.683298524E0,-3.436093330E0,7.267002583E0,3.065205812E0
3.685533326E0,-3.146561861E0,7.316055298E0,2.891128063E0
3.687769899E0,-2.688336134E0,7.353742123E0,2.623131752E0
3.690006654E0,-2.451446772E0,7.432106972E0,2.444268227E0
3.692240786E0,-2.021337032E0,7.570292473E0,2.271386862E0
3.694469545E0,-1.509272933E0,7.792825222E0,2.118246317E0
3.696716920E0,-1.742573142E0,8.278568268E0,2.239681959E0
3.698953981E0,-3.114258766E0,8.969495773E0,3.055634499E0
3.701193421E0,-3.686143398E0,9.427721024E0,4.131806374E0
3.703427308E0,-3.557528973E0,9.630513191E0,5.196014404E0
3.705663881E0,-3.196810961E0,9.515657425E0,6.048457623E0
3.707901185E0,-3.287738323E0,9.203393936E0,6.649055958E0
3.710139039E0,-3.691527128E0,8.752346992E0,7.198806763E0
3.712375551E0,-3.996612072E0,8.175676346E0,7.788637638E0
3.714610963E0,-4.178466320E0,7.501499176E0,8.327022552E0
3.716847963E0,-4.277768612E0,6.821339130E0,8.784649849E0
3.719084535E0,-4.438685894E0,6.148357868E0,9.108877182E0
3.721321657E0,-4.750350952E0,5.531009674E0,9.192625999E0
3.723558168E0,-5.174479008E0,4.916054249E0,9.017950058E0
3.725795228E0,-5.702096462E0,4.361517429E0,8.647063255E0
3.728032045E0,-6.240481377E0,3.932005882E0,8.156534195E0
3.730269594E0,-6.696314335E0,3.578466177E0,7.547560692E0
3.732505128E0,-7.097710133E0,3.286541939E0,6.909873486E0
3.734742067E0,-7.484150887E0,3.089732170E0,6.310471535E0
3.736978822E0,-7.859824181E0,2.935993433E0,5.682953835E0
3.739215699E0,-8.134400368E0,2.833101988E0,5.084149837E0
3.741452516E0,-8.385048866E0,2.696112871E0,4.462614059E0
3.743689210E0,-8.538787842E0,2.615953445E0,3.736392498E0
3.745923647E0,-8.825327873E0,2.526222467E0,3.443271875E0
3.748153871E0,-9.071788788E0,2.490928411E0,3.622135162E0
3.750399476E0,-9.342776299E0,2.545365095E0,4.082155228E0
3.752636293E0,-9.575477600E0,2.656033039E0,4.661218643E0
3.754875123E0,-9.788438797E0,2.804986238E0,5.155336380E0
3.757109987E0,-9.957133293E0,2.953939438E0,5.568098068E0
3.759346742E0,-1.005404282E1,3.035295486E0,5.882156372E0
3.761583375E0,-1.005523872E1,3.072384357E0,6.077171326E0
3.763820375E0,-9.911669731E0,3.117249727E0,6.193223000E0
3.766057924E0,-9.725028992E0,3.123830080E0,6.242276192E0
3.768293763E0,-9.518648148E0,3.107080221E0,6.172883987E0
3.770530397E0,-9.426525116E0,3.077768087E0,5.940182209E0
3.772764405E0,-9.223134995E0,3.104089260E0,5.770291805E0
3.774990480E0,-8.959325790E0,3.058027267E0,5.596213818E0
3.777230775E0,-8.690134048E0,3.040081263E0,5.493920803E0
3.779477601E0,-8.493922234E0,2.965903759E0,5.400600910E0
3.781718446E0,-8.345566750E0,2.935395241E0,5.363512039E0
3.783954713E0,-8.227122307E0,2.894717216E0,5.412564754E0
3.786187867E0,-8.102695465E0,2.931207657E0,5.480162144E0
3.788424379E0,-7.959126472E0,3.000001431E0,5.619544029E0
3.790661195E0,-7.838288784E0,3.117249727E0,5.744568825E0
3.792898256E0,-7.683951855E0,3.257827997E0,5.831906796E0
3.795134889E0,-7.466204643E0,3.449851990E0,5.904888153E0
3.797371949E0,-7.243073940E0,3.666402578E0,5.949753284E0
3.799608949E0,-7.022934437E0,3.931407690E0,5.912664890E0
3.801846315E0,-6.841079712E0,4.220340729E0,5.847460270E0
3.804082094E0,-6.629913330E0,4.557130814E0,5.787041664E0
3.806318910E0,-6.308676720E0,4.820341110E0,5.679364681E0
3.808555482E0,-6.078367710E0,5.118845940E0,5.566901684E0
3.810789430E0,-5.823532104E0,5.436492920E0,5.416153908E0
3.813017640E0,-5.440680504E0,5.675177097E0,5.276174068E0
3.815265931E0,-5.052444935E0,5.928217888E0,5.126622677E0
3.817503114E0,-4.640879631E0,6.123831272E0,4.929812908E0
3.819743654E0,-4.239483356E0,6.295516491E0,4.761716843E0
3.821976137E0,-3.818346739E0,6.396014690E0,4.369294167E0
3.824213014E0,-3.381058455E0,6.554539204E0,3.929612875E0
3.826449647E0,-2.874378204E0,6.653243542E0,3.614956856E0
3.828686342E0,-2.428116798E0,6.830312252E0,3.265604734E0
3.830923829E0,-2.067398787E0,6.965506554E0,2.758326292E0
3.833162599E0,-1.756929994E0,7.124629498E0,2.546561480E0
3.835397157E0,-1.591825247E0,7.308278561E0,2.618944407E0
3.837634889E0,-1.467398524E0,7.448856831E0,2.863610506E0
3.839869814E0,-1.496112347E0,7.615158081E0,3.158525944E0
3.842107240E0,-1.571486235E0,7.829914093E0,3.433700562E0
3.844343568E0,-1.594218135E0,7.997411251E0,3.552743435E0
3.846580873E0,-1.578664780E0,8.073383331E0,3.562314749E0
3.848817445E0,-1.476969719E0,8.072785378E0,3.424727440E0
3.851054567E0,-1.352542996E0,7.975875854E0,3.240479946E0
3.853292298E0,-1.213759303E0,7.846065521E0,2.989233732E0
3.855528871E0,-1.045663476E0,7.682755470E0,2.666800737E0
3.857761659E0,-9.218349457E-1,7.462017536E0,2.343769789E0
3.859987978E0,-8.356932998E-1,7.261618614E0,2.039881229E0
3.862230531E0,-8.225327730E-1,7.033103943E0,1.763510346E0
3.864475038E0,-8.865407705E-1,6.810571671E0,1.539183140E0
3.866714783E0,-1.004387259E0,6.540182590E0,1.414756417E0
3.868950135E0,-1.151545882E0,6.298507214E0,1.399801254E0
3.871185365E0,-1.356730461E0,6.057430744E0,1.484148264E0
3.873422853E0,-1.572682738E0,5.778068542E0,1.625324726E0
3.875658815E0,-1.761117458E0,5.478367329E0,1.848455548E0
3.877895631E0,-1.957328916E0,5.250451088E0,2.066202402E0
3.880132143E0,-2.149353027E0,5.027918816E0,2.274377823E0
3.882368959E0,-2.359323025E0,4.819743156E0,2.444866419E0
3.884605836E0,-2.583052158E0,4.697709084E0,2.624328136E0
3.886842836E0,-2.886940479E0,4.653441906E0,2.802593470E0
3.889079713E0,-3.190829039E0,4.614558697E0,2.966501951E0
3.891317262E0,-3.479164124E0,4.665405750E0,3.192623615E0
3.893553041E0,-3.658027649E0,4.752744198E0,3.577269793E0
3.895786744E0,-3.789632797E0,4.781457901E0,3.914657831E0
3.898013734E0,-3.905684710E0,4.816154003E0,4.085146427E0
3.900263246E0,-3.997808456E0,4.821537495E0,4.256233215E0
3.902500062E0,-4.109074593E0,4.841278553E0,4.383651257E0
3.904740053E0,-4.243072987E0,4.890929699E0,4.482355118E0
3.906973939E0,-4.438087940E0,5.017749310E0,4.556532383E0
3.909211244E0,-4.590032101E0,5.163113117E0,4.655236244E0
3.911447084E0,-4.737788677E0,5.331807137E0,4.797011375E0
3.913683900E0,-4.886143684E0,5.434100151E0,4.962115765E0
3.915920534E0,-4.991427898E0,5.520840168E0,5.146961689E0
3.918157594E0,-5.102096081E0,5.564508915E0,5.317450047E0
3.920394349E0,-5.175076962E0,5.612365723E0,5.493322372E0
3.922631166E0,-5.176273346E0,5.583651543E0,5.574080467E0
3.924867189E0,-5.137988567E0,5.582455158E0,5.650650501E0
3.927098390E0,-5.110470772E0,5.519643784E0,5.675177097E0
3.929341188E0,-5.039882660E0,5.461019516E0,5.699703693E0
3.931578004E0,-4.963910580E0,5.421537876E0,5.705087185E0
3.933816530E0,-4.896911621E0,5.377869129E0,5.677569866E0
3.936051637E0,-4.792823792E0,5.309673309E0,5.678168297E0
3.938288392E0,-4.749752998E0,5.270790100E0,5.635695457E0
3.940525209E0,-4.692325115E0,5.246263504E0,5.612963676E0
3.942760560E0,-4.673182487E0,5.236093998E0,5.612963676E0
3.944992738E0,-4.667798996E0,5.250451088E0,5.565107346E0
3.947235475E0,-4.615156651E0,5.230710506E0,5.532206059E0
3.949472474E0,-4.543970108E0,5.182255745E0,5.499902725E0
3.951710573E0,-4.415356159E0,5.137390137E0,5.481956482E0
3.953945863E0,-4.234099865E0,5.048257351E0,5.474180222E0
3.956182435E0,-4.047459602E0,5.041079044E0,5.480760098E0
3.958419496E0,-3.808177233E0,5.037489891E0,5.454439163E0
3.960656312E0,-3.601198196E0,5.063212872E0,5.422734261E0
3.962890992E0,-3.409173965E0,5.093721390E0,5.414957523E0
3.965117921E0,-3.250649452E0,5.110470772E0,5.373681545E0
3.967366273E0,-3.159124136E0,5.118845940E0,5.340780258E0
3.969602846E0,-3.086741209E0,5.136792183E0,5.331807137E0
3.971842836E0,-3.010170937E0,5.145166874E0,5.337191105E0
3.974076783E0,-2.986242771E0,5.159523964E0,5.342574596E0
3.976313600E0,-2.990430117E0,5.183452129E0,5.356333256E0
3.978550721E0,-3.010170937E0,5.164309502E0,5.399404526E0
3.980788392E0,-3.053241730E0,5.198407173E0,5.408377171E0
3.983020875E0,-3.096910715E0,5.175076962E0,5.450850010E0
3.985249147E0,-3.125624657E0,5.170291424E0,5.441278458E0
3.987497316E0,-3.130410194E0,5.165505886E0,5.455635548E0
3.989734315E0,-3.135195971E0,5.156532764E0,5.431707382E0
3.991971132E0,-3.097508907E0,5.117649555E0,5.417948723E0
3.994195802E0,-3.049652576E0,5.088337421E0,5.375475883E0
3.996445680E0,-3.010769129E0,5.078765869E0,5.289932728E0
3.998682374E0,-2.960519791E0,5.117051125E0,5.094917774E0
4.000921083E0,-2.876770973E0,5.179264545E0,4.890331268E0
4.003151795E0,-2.730808735E0,5.187639713E0,4.658227444E0
4.005377015E0,-2.688934565E0,5.307878971E0,4.372285366E0
4.007613893E0,-2.667997360E0,5.398806095E0,4.324428558E0
4.009853700E0,-2.731407166E0,5.455635548E0,4.590630054E0
4.012105165E0,-2.830709219E0,5.498108387E0,5.076373100E0
4.014341676E0,-2.764308453E0,5.398207664E0,5.644668579E0
4.016579652E0,-2.697309256E0,5.323431969E0,6.112465382E0
4.018812257E0,-2.724826813E0,5.447858810E0,6.150152206E0
4.021049257E0,-2.761915445E0,6.071189404E0,5.943771362E0
4.023285646E0,-2.845664263E0,7.035496712E0,5.550152302E0
4.025522523E0,-3.026322365E0,7.863413334E0,5.070391178E0
4.027758180E0,-3.152543783E0,8.263612747E0,4.773082733E0
4.029991456E0,-3.028116941E0,8.299505234E0,4.850251675E0
4.032232972E0,-2.714657307E0,8.264809608E0,5.196612358E0
4.034470582E0,-2.413759947E0,8.387441635E0,5.537590027E0
4.036707765E0,-2.149353027E0,8.602197647E0,5.773283005E0
4.038943239E0,-2.117648125E0,8.840881348E0,5.821139336E0
4.041179750E0,-2.311466694E0,9.198608398E0,5.570491314E0
4.043416505E0,-2.606980324E0,9.339784622E0,5.043471813E0
4.045653383E0,-2.951546669E0,9.853643417E0,4.681557655E0
4.047890199E0,-3.250051260E0,1.030887794E1,4.496711731E0
4.050127320E0,-3.537189960E0,1.061934662E1,4.393222332E0
4.052364930E0,-3.806382656E0,1.085803127E1,4.376472473E0
4.054600953E0,-4.048057556E0,1.110030460E1,4.507479668E0
4.056838259E0,-4.238286972E0,1.132642555E1,4.729413986E0
4.059073976E0,-4.399204254E0,1.157228851E1,4.922634602E0
4.061298829E0,-4.502694130E0,1.180199909E1,5.121836662E0
4.063547670E0,-4.587040901E0,1.198983574E1,5.225326538E0
4.065783998E0,-4.667200565E0,1.210528946E1,5.224728107E0
4.068025575E0,-4.783850670E0,1.223749352E1,5.061418056E0
4.070259096E0,-4.923232555E0,1.241276741E1,4.830510616E0
4.072494691E0,-5.143372059E0,1.261795235E1,4.556532383E0
4.074731264E0,-5.334797859E0,1.278006554E1,4.292125702E0
4.076968080E0,-5.494519234E0,1.286979675E1,4.037888050E0
4.079205140E0,-5.578866005E0,1.289133167E1,3.851248026E0
4.081441774E0,-5.554339409E0,1.283450222E1,3.646661758E0
4.083678773E0,-5.492724419E0,1.268614769E1,3.451646566E0
4.085915590E0,-5.359922886E0,1.250309658E1,3.310470104E0
4.088153199E0,-5.175076962E0,1.227159119E1,3.150151014E0
4.090388978E0,-4.966303349E0,1.207298660E1,3.028715372E0
4.092625856E0,-4.733601570E0,1.184985638E1,2.888136864E0
4.094859926E0,-4.534399033E0,1.165663528E1,2.742174864E0
4.097085817E0,-4.353740692E0,1.147238827E1,2.615355253E0
4.099321535E0,-4.158725739E0,1.132642555E1,2.522035122E0
4.101572572E0,-3.997210264E0,1.119063377E1,2.423929453E0
4.103812441E0,-3.859622955E0,1.105543900E1,2.349153519E0
4.106051271E0,-3.736392498E0,1.094357395E1,2.312064886E0
4.108283082E0,-3.632304668E0,1.084187984E1,2.289333105E0
4.110519838E0,-3.552145243E0,1.073061275E1,2.304288149E0
4.112756044E0,-3.471985579E0,1.063370419E1,2.300698996E0
4.114992250E0,-3.425923824E0,1.053679466E1,2.330011129E0
4.117230043E0,-3.388834953E0,1.045962620E1,2.349751949E0
4.119466859E0,-3.318845034E0,1.035314560E1,2.393420935E0
4.121704286E0,-3.239283562E0,1.025145054E1,2.427518606E0
4.123940492E0,-3.244069338E0,1.026580715E1,2.432304144E0
4.126172181E0,-3.238685369E0,1.027537823E1,2.422732830E0
4.128413942E0,-3.272783279E0,1.027119160E1,2.460419893E0
4.130650636E0,-3.302095175E0,1.027119160E1,2.565105915E0
4.132888795E0,-3.361317635E0,1.022393322E1,2.636292458E0
4.135124391E0,-3.434298754E0,1.020060253E1,2.745165825E0
4.137361390E0,-3.513261795E0,1.014796066E1,2.935395241E0
4.139599244E0,-3.440280676E0,9.973882675E0,3.098705292E0
4.141835817E0,-3.294318676E0,9.784850121E0,3.123830080E0
4.144068666E0,-3.163311481E0,9.629914284E0,3.177668571E0
4.146296205E0,-3.021536827E0,9.483952522E0,3.198605776E0
4.148544801E0,-2.927020311E0,9.401400566E0,3.161516905E0
4.150781984E0,-2.860021353E0,9.338588715E0,3.114258766E0
4.153021303E0,-2.860619545E0,9.286544800E0,3.057429075E0
4.155255250E0,-2.855833769E0,9.257830620E0,3.043072224E0
4.157492494E0,-2.874976397E0,9.257830620E0,3.004786968E0
4.159730104E0,-2.959921598E0,9.321838379E0,2.932404041E0
4.161964539E0,-3.291327477E0,9.537791252E0,2.833700180E0
4.164197755E0,-3.687937975E0,9.841081619E0,2.667398930E0
4.166438783E0,-4.065405846E0,1.013001442E1,2.467598438E0
4.168676149E0,-4.272384644E0,1.029631615E1,2.317448616E0
4.170914064E0,-4.408177376E0,1.047577763E1,2.187638044E0
4.173149598E0,-4.514657974E0,1.066481018E1,2.071586132E0
4.175386781E0,-4.850849628E0,1.092802143E1,2.058425665E0
4.177624025E0,-5.102694511E0,1.108475113E1,2.060818434E0
4.179859681E0,-5.563910961E0,1.130728340E1,2.041675806E0
4.182096437E0,-6.151947021E0,1.167517948E1,1.974078655E0
4.184333131E0,-6.826124668E0,1.206820107E1,1.881356835E0
4.186570436E0,-7.423732281E0,1.243191051E1,1.808375716E0
4.188806947E0,-7.913064480E0,1.269272804E1,1.784447432E0
4.191044618E0,-8.336593628E0,1.287637711E1,1.737189293E0
4.193284913E0,-8.721838951E0,1.305404377E1,1.733600020E0
4.195518129E0,-9.122636795E0,1.320838070E1,1.753340840E0
4.197754030E0,-9.418149948E0,1.330828094E1,1.783849239E0
4.199989809E0,-9.690333366E0,1.335553932E1,1.771885157E0
4.202227663E0,-9.990633011E0,1.344168091E1,1.716252089E0
4.204464540E0,-1.026700401E1,1.349432373E1,1.580459356E0
4.206701478E0,-1.048594666E1,1.350329685E1,1.420738459E0
4.208938050E0,-1.061874866E1,1.347278786E1,1.204786181E0
4.211176149E0,-1.068036366E1,1.337946796E1,9.756734371E-1
4.213412599E0,-1.055234814E1,1.316351604E1,7.292127013E-1
4.215648317E0,-1.026760197E1,1.284467220E1,5.036891699E-1
4.217884828E0,-9.878767967E0,1.246182060E1,2.691925466E-1
4.220121583E0,-9.403194427E0,1.207298660E1,7.896314561E-2
4.222358461E0,-8.846264839E0,1.170269775E1,-1.633101404E-1
4.224595277E0,-8.307880402E0,1.139880848E1,-3.726821244E-1
4.226832094E0,-7.792226791E0,1.117208862E1,-5.533402562E-1
4.229069154E0,-7.362715244E0,1.097946644E1,-6.969096065E-1
4.231306459E0,-7.000202656E0,1.080718327E1,-8.267202377E-1
4.233542299E0,-6.732804775E0,1.068395329E1,-8.955138922E-1
4.235779115E0,-6.513861656E0,1.058046341E1,-9.266205430E-1
4.238015687E0,-6.337988853E0,1.048235798E1,-9.008977413E-1
4.240252565E0,-6.142973900E0,1.043091202E1,-8.422735929E-1
4.242489625E0,-5.937789440E0,1.038903809E1,-7.686942816E-1
4.244724672E0,-5.712863922E0,1.042373371E1,-6.807580590E-1
4.246956422E0,-5.450251579E0,1.043330479E1,-5.545366406E-1
4.249200746E0,-5.216951370E0,1.043868923E1,-3.900300860E-1
4.251436586E0,-5.011766911E0,1.046321487E1,-2.069791555E-1
4.253675111E0,-4.821537495E0,1.048355389E1,-3.349951655E-2
4.255909730E0,-4.683950424E0,1.049491978E1,1.537388563E-1
4.258146791E0,-4.594219685E0,1.051167011E1,3.499503136E-1
4.260383607E0,-4.509274483E0,1.049073315E1,5.126622319E-1
4.262620485E0,-4.458426952E0,1.047936630E1,7.280163169E-1
4.264857606E0,-4.383651257E0,1.043390274E1,8.907282352E-1
4.267095277E0,-4.351946354E0,1.037109184E1,1.010369420E0
4.269330690E0,-4.339982033E0,1.026999474E1,1.120439172E0
4.271567689E0,-4.341776848E0,1.017846966E1,1.197009563E0
4.273799562E0,-4.348955154E0,1.004506969E1,1.192223907E0
4.276023500E0,-4.378865242E0,9.921240807E0,1.173081279E0
4.278277650E0,-4.429114819E0,9.792626381E0,1.168295622E0
4.280515016E0,-4.482953072E0,9.664610863E0,1.134197950E0
4.282752748E0,-4.527818680E0,9.527023315E0,1.043270707E0
4.284971559E0,-4.606183529E0,9.366106033E0,9.810572863E-1
4.287224855E0,-4.640879631E0,9.223134995E0,9.188438654E-1
4.289461183E0,-4.680959225E0,9.071190834E0,8.380861282E-1
4.291702454E0,-4.710271358E0,8.962317467E0,7.423732281E-1
4.293935121E0,-4.745565414E0,8.824131966E0,6.849454641E-1
4.296171998E0,-4.794020176E0,8.729615211E0,5.611169338E-1
4.298408815E0,-4.841876507E0,8.683553696E0,4.510470629E-1
4.300645875E0,-4.831707001E0,8.635697365E0,3.511467278E-1
4.302883424E0,-4.841278553E0,8.603393555E0,2.219343036E-1
4.305119203E0,-4.830510616E0,8.612964630E0,1.268195957E-1
4.307355836E0,-4.853840828E0,8.618349075E0,3.110669367E-2
4.309589784E0,-4.896313190E0,8.648259163E0,1.196411345E-2
4.311817507E0,-4.947759151E0,8.691927910E0,-1.256231871E-2
4.314063539E0,-5.033302307E0,8.750552177E0,-1.854437590E-2
4.316302736E0,-5.147559643E0,8.833703041E0,2.333002165E-2
4.318542726E0,-5.257031441E0,8.930612564E0,9.391828626E-2
4.320778321E0,-5.394618511E0,9.065806389E0,2.159522474E-1
4.323013307E0,-5.551946640E0,9.196813583E0,3.577269912E-1
4.325250062E0,-5.718846321E0,9.332606316E0,4.941178858E-1
4.327486330E0,-5.904289722E0,9.501898766E0,6.448656917E-1
4.329723451E0,-6.071189404E0,9.661619186E0,8.291130662E-1
4.331960267E0,-6.223731518E0,9.815957069E0,9.894321561E-1
4.334197145E0,-6.391229153E0,9.960722923E0,1.216750264E0
4.336431886E0,-6.530611038E0,1.006241703E1,1.439282775E0
4.338662477E0,-6.712465763E0,1.016949654E1,1.646860242E0
4.340904542E0,-6.870990276E0,1.025683403E1,1.855035782E0
4.343132142E0,-7.006184578E0,1.030050373E1,2.078166485E0
4.345382997E0,-7.137191772E0,1.033041382E1,2.295913219E0
4.347617738E0,-7.229315281E0,1.033519936E1,2.514856577E0
4.349857606E0,-7.336394310E0,1.035494041E1,2.737987280E0
4.352091615E0,-7.390830994E0,1.035015392E1,2.928216696E0
4.354329286E0,-7.469195843E0,1.035015392E1,3.132204771E0
4.356566224E0,-7.575078487E0,1.038903809E1,3.321835995E0
4.358801576E0,-7.639086246E0,1.041296577E1,3.555136204E0
4.361038209E0,-7.658827305E0,1.048893833E1,3.764508247E0
4.363274904E0,-7.664210796E0,1.056431198E1,3.955335855E0
4.365512025E0,-7.620542049E0,1.068694401E1,4.160520554E0
4.367748597E0,-7.544569969E0,1.075693417E1,4.337589264E0
4.369985414E0,-7.438687325E0,1.087418270E1,4.457230568E0
4.372222535E0,-7.381259441E0,1.093519974E1,4.581656933E0
4.374460328E0,-7.313064098E0,1.103868866E1,4.677370071E0
4.376695924E0,-7.250850677E0,1.108056355E1,4.754538536E0
4.378932679E0,-7.169494629E0,1.110269737E1,4.793421745E0
4.381169008E0,-7.054041386E0,1.112064362E1,4.737190723E0
4.383406312E0,-6.894320011E0,1.115713406E1,4.652843475E0
4.385642885E0,-6.749554634E0,1.115055370E1,4.511068821E0
4.387879762E0,-6.623931408E0,1.113500023E1,4.316651821E0
4.390116761E0,-6.473781586E0,1.110090256E1,4.027120590E0
4.392354310E0,-6.351747513E0,1.105783176E1,3.704089403E0
4.394588075E0,-6.196214199E0,1.100937653E1,3.333800077E0
4.396819337E0,-6.016752720E0,1.093699455E1,2.934797049E0
4.399063051E0,-5.827719688E0,1.088315582E1,2.526820660E0
4.401300355E0,-5.618945599E0,1.081077290E1,2.085345030E0
4.403538820E0,-5.420939922E0,1.072343445E1,1.671984792E0
4.405774049E0,-5.246263504E0,1.064626598E1,1.297508121E0
4.408010804E0,-5.120042324E0,1.055055332E1,9.074779749E-1
4.410248414E0,-5.012963295E0,1.045005512E1,5.132604837E-1
4.412484193E0,-4.891527653E0,1.036391354E1,1.567298770E-1
4.414721071E0,-4.818546772E0,1.026401234E1,-1.573280841E-1
4.416957582E0,-4.755734921E0,1.016411209E1,-4.378865361E-1
4.419194459E0,-4.717449665E0,1.004506969E1,-6.711867452E-1
4.421431459E0,-4.683351994E0,9.964311600E0,-8.991031051E-1
4.423663881E0,-4.592424870E0,9.844670296E0,-1.098305583E0
4.425888490E0,-4.467998028E0,9.699904442E0,-1.302293777E0
4.428142335E0,-4.301098824E0,9.583254814E0,-1.443470240E0
4.430378236E0,-4.163511276E0,9.433703423E0,-1.566102386E0
4.432619142E0,-4.025325775E0,9.317052841E0,-1.621735573E0
4.434851442E0,-3.879363775E0,9.138189316E0,-1.658226132E0
4.437088807E0,-3.747758389E0,8.987442017E0,-1.618744493E0
4.439325807E0,-3.606581926E0,8.818149567E0,-1.569691658E0
4.441562440E0,-3.485744476E0,8.609973907E0,-1.487139225E0
4.443799379E0,-3.359523058E0,8.468797684E0,-1.371087432E0
4.446036622E0,-3.238087177E0,8.318049431E0,-1.255035520E0
4.448272523E0,-3.116651535E0,8.181658745E0,-1.139581800E0
4.450509279E0,-3.013760090E0,8.065009117E0,-9.714859724E-1
4.452742921E0,-2.968894720E0,7.967501163E0,-8.231309652E-1
4.454971803E0,-2.904288530E0,7.880163193E0,-6.693921089E-1
4.457219789E0,-2.877369165E0,7.821538925E0,-5.168496966E-1
4.459456422E0,-2.860021353E0,7.772486210E0,-3.541377485E-1
4.461693788E0,-2.871985435E0,7.709674358E0,-1.824527234E-1
4.463921144E0,-2.883351326E0,7.694719315E0,-6.580262445E-3
4.466166566E0,-2.937788010E0,7.685148239E0,2.075773627E-1
4.468403383E0,-2.977867842E0,7.674978733E0,3.888336718E-1
4.470642396E0,-3.026920557E0,7.689335346E0,5.982056856E-1
4.472877076E0,-3.081357241E0,7.698308468E0,8.021938205E-1
4.475113832E0,-3.116053343E0,7.698308468E0,9.786644578E-1
4.477350465E0,-3.155534744E0,7.726424217E0,1.173679471E0
4.479587770E0,-3.180659533E0,7.735397339E0,1.359123230E0
4.481825258E0,-3.200998545E0,7.764111042E0,1.506880045E0
4.484060975E0,-3.215355396E0,7.787441254E0,1.601994753E0
4.486297975E0,-3.211168051E0,7.825128078E0,1.730608940E0
4.488534425E0,-3.220739365E0,7.862815380E0,1.802393675E0
4.490768189E0,-3.234498024E0,7.916055679E0,1.820937991E0
4.492996339E0,-3.229712248E0,7.948956966E0,1.868794441E0
4.495244874E0,-3.214159012E0,8.015955925E0,1.873580098E0
4.497482850E0,-3.190230846E0,8.039285660E0,1.878365755E0
4.499722475E0,-3.170490026E0,8.067401886E0,1.878963947E0
4.501955140E0,-3.161516905E0,8.043473244E0,1.869392633E0
4.504191530E0,-3.195016384E0,8.010572433E0,1.831107497E0
4.506425660E0,-3.171686411E0,7.953144073E0,1.826321840E0
4.508654176E0,-3.172284603E0,7.895716667E0,1.783849239E0
4.510902467E0,-3.158525944E0,7.819744587E0,1.721635938E0
4.513138917E0,-3.135195971E0,7.733603001E0,1.674377680E0
4.515378664E0,-3.083152056E0,7.661220074E0,1.603789330E0
4.517613527E0,-2.998206854E0,7.545167923E0,1.523629785E0
4.519849183E0,-2.760719061E0,7.345965385E0,1.440479279E0
4.522086061E0,-2.622533560E0,7.267600536E0,1.393819213E0
4.524322572E0,-2.626721144E0,7.311269760E0,1.365105271E0
4.526559694E0,-2.615355253E0,7.402196884E0,1.317248821E0
4.528796449E0,-2.528615236E0,7.429116249E0,1.308874011E0
4.531033021E0,-2.488535643E0,7.486543655E0,1.228116274E0
4.533270082E0,-2.544168711E0,7.578667641E0,1.165304661E0
4.535507570E0,-2.681157827E0,7.695915699E0,1.106680512E0
4.537743287E0,-2.774477959E0,7.793423176E0,9.720842242E-1
4.539980348E0,-2.843271494E0,7.905287743E0,7.806583643E-1
4.542216859E0,-2.836092949E0,7.939983845E0,5.659025311E-1
4.544450746E0,-2.626721144E0,7.722237110E0,3.583251834E-1
4.546678468E0,-1.902294040E0,7.042675018E0,1.896311939E-1
4.548927064E0,-2.121835470E0,7.286743164E0,-8.434699476E-2
4.551164430E0,-2.107478619E0,7.488338470E0,-2.991028428E-1
4.553404909E0,-1.782054663E0,7.454838753E0,-3.726821244E-1
4.555637574E0,-1.537388563E0,7.460821152E0,-4.037888348E-1
4.557874269E0,-1.592423439E0,7.624131203E0,-3.900300860E-1
4.560110658E0,-1.718644857E0,7.836493969E0,-3.726821244E-1
4.562348024E0,-1.869990945E0,8.011170387E0,-3.457628787E-1
4.564584779E0,-2.082952023E0,8.204988480E0,-2.715853751E-1
4.566821717E0,-2.406581402E0,8.401200294E0,-2.464607358E-1
4.569059754E0,-2.810968399E0,8.584251404E0,-2.123630047E-1
4.571296449E0,-3.206980467E0,8.729017258E0,-2.255235314E-1
4.573532961E0,-3.530011654E0,8.848658562E0,-2.859423161E-1
4.575772707E0,-3.805784464E0,8.953942299E0,-3.601198196E-1
4.578004884E0,-4.024727821E0,9.000602722E0,-4.767699242E-1
4.580242250E0,-4.158127785E0,8.998807907E0,-5.970092416E-1
4.582477723E0,-4.186243057E0,8.961120605E0,-7.262216806E-1
4.584715699E0,-4.143172264E0,8.922835350E0,-8.069794178E-1
4.586952699E0,-4.153940201E0,8.808578491E0,-8.877372146E-1
4.589190248E0,-4.082753658E0,8.717052460E0,-9.439685345E-1
4.591425844E0,-4.064209461E0,8.664410591E0,-9.870393276E-1
4.593662599E0,-4.040280819E0,8.649456024E0,-9.672985673E-1
4.595898988E0,-4.036093712E0,8.601598740E0,-9.720842242E-1
4.598136354E0,-3.993621111E0,8.577073097E0,-9.810572863E-1
4.600373170E0,-3.893122435E0,8.518448830E0,-1.046859860E0
4.602610048E0,-3.784249067E0,8.416155815E0,-1.060020447E0
4.604847047E0,-3.622135162E0,8.371290207E0,-1.091725349E0
4.607084535E0,-3.454039574E0,8.316255569E0,-1.171286702E0
4.609320131E0,-3.315854073E0,8.271389961E0,-1.222732425E0
4.611553956E0,-3.133999348E0,8.282755852E0,-1.158724308E0
4.613781557E0,-2.952144861E0,8.284550667E0,-1.104885817E0
4.616030580E0,-2.741576433E0,8.338388443E0,-1.002592683E0
4.618267152E0,-2.574079037E0,8.373682976E0,-9.008977413E-1
4.620506960E0,-2.464009047E0,8.462217331E0,-7.621139884E-1
4.622739808E0,-2.382653236E0,8.522037506E0,-6.370890141E-1
4.624973756E0,-2.306082726E0,8.573483467E0,-5.222335458E-1
