"Time (s)","Gyroscope x (rad/s)","Gyroscope y (rad/s)","Gyroscope z (rad/s)"
1.946392900E-2,-2.932153270E-2,-1.374446787E-2,-4.764748737E-2
2.170099000E-2,-3.787364438E-2,-1.237002108E-2,-4.153883830E-2
2.393701300E-2,-4.169155285E-2,-1.221730467E-2,-3.665191308E-2
2.617267000E-2,-4.291328415E-2,-1.221730467E-2,-3.298672289E-2
2.840851000E-2,-4.780020565E-2,-8.552113548E-3,-2.809980139E-2
3.064459400E-2,-4.902193695E-2,-4.886921961E-3,-2.199114859E-2
3.288165400E-2,-5.161811411E-2,-6.108652335E-3,-1.343903504E-2
3.511877600E-2,-5.528330430E-2,-3.512475174E-3,-8.552113548E-3
3.735583600E-2,-5.757404864E-2,2.596177394E-3,-7.330383174E-3
3.959240800E-2,-5.513058975E-2,4.886921961E-3,-0.000000000E0
4.182946900E-2,-5.253441259E-2,9.773843922E-3,3.665191587E-3
4.406689600E-2,-5.253441259E-2,1.588249579E-2,6.108652335E-3
4.630255300E-2,-5.115996301E-2,2.183843218E-2,7.483099122E-3
4.853936900E-2,-4.963280261E-2,3.161227703E-2,6.261368748E-3
5.077588000E-2,-5.085453019E-2,3.649919853E-2,1.527163113E-4
5.301275800E-2,-4.932736978E-2,4.612032697E-2,-1.069014193E-3
5.524957400E-2,-4.688390717E-2,4.963280261E-2,-9.162978968E-4
5.748669500E-2,-4.550946131E-2,5.085453019E-2,-4.581489135E-3
5.972479400E-2,-3.787364438E-2,6.047565863E-2,-9.468411095E-3
6.196130500E-2,-3.909537569E-2,6.291911751E-2,-1.435533352E-2
6.419690100E-2,-3.405573592E-2,6.398813426E-2,-1.908953860E-2
6.643341200E-2,-2.535090782E-2,6.383541971E-2,-2.519819140E-2
6.867016700E-2,-2.290744707E-2,6.872233748E-2,-3.008511290E-2
7.090704500E-2,-1.542434748E-2,7.208210230E-2,-3.359758854E-2
7.314386100E-2,-1.038470957E-2,7.086037099E-2,-3.970624134E-2
7.538073900E-2,-4.123340361E-3,7.315111160E-2,-4.337143153E-2
7.761810400E-2,7.635815418E-4,7.544185966E-2,-4.825835302E-2
7.985559200E-2,9.468411095E-3,7.406741381E-2,-5.299255997E-2
8.209118800E-2,1.679879427E-2,7.513642311E-2,-5.421429127E-2
8.432794300E-2,2.183843218E-2,7.864890248E-2,-5.406157300E-2
8.656274600E-2,2.932153270E-2,8.216137439E-2,-5.772676691E-2
8.879193200E-2,3.298672289E-2,7.971791178E-2,-5.894849449E-2
9.102783300E-2,4.031710699E-2,7.956519723E-2,-6.001751125E-2
9.327472100E-2,4.902193695E-2,7.941248268E-2,-6.001751125E-2
9.551379500E-2,5.024366826E-2,8.063421398E-2,-6.001751125E-2
9.775213800E-2,5.635231733E-2,8.048149943E-2,-5.986479297E-2
9.998523100E-2,5.879577994E-2,7.925976813E-2,-5.742133409E-2
1.022219860E-1,6.123924255E-2,7.788532227E-2,-5.619960278E-2
1.044585590E-1,6.123924255E-2,7.666359097E-2,-5.619960278E-2
1.066956800E-1,5.742133409E-2,7.070764899E-2,-5.513058975E-2
1.089325570E-1,5.497787148E-2,6.948592514E-2,-5.268712714E-2
1.111694960E-1,5.115996301E-2,7.086037099E-2,-4.902193695E-2
1.134060680E-1,4.993823543E-2,7.208210230E-2,-4.413501546E-2
1.156404430E-1,4.001167417E-2,7.101308554E-2,-4.169155285E-2
1.178666400E-1,3.512475267E-2,6.994406879E-2,-3.817907721E-2
1.201160290E-1,3.023782931E-2,7.131851465E-2,-3.451388702E-2
1.223526020E-1,1.908953860E-2,7.391469181E-2,-3.207042441E-2
1.245928970E-1,1.053742506E-2,7.528914511E-2,-2.855795063E-2
1.268268440E-1,-4.581489484E-4,7.788532227E-2,-2.489275858E-2
1.290638440E-1,-1.038470957E-2,7.696902007E-2,-1.893682219E-2
1.313013930E-1,-1.664607786E-2,7.696902007E-2,-1.649336144E-2
1.335379040E-1,-2.901609987E-2,7.483099401E-2,-1.420261711E-2
1.357725840E-1,-3.772092983E-2,7.254024595E-2,-1.298088674E-2
1.380056780E-1,-4.993823543E-2,7.406741381E-2,-1.069014147E-2
1.402468890E-1,-6.352998316E-2,7.315111160E-2,-5.955935922E-3
1.424839490E-1,-6.979135424E-2,6.841690838E-2,-4.734205548E-3
1.447218640E-1,-7.834346592E-2,6.979135424E-2,-3.665191587E-3
1.469573990E-1,-8.704829961E-2,6.872233748E-2,-1.221730490E-3
1.491947030E-1,-9.330966324E-2,6.154467165E-2,-1.527163113E-4
1.514321910E-1,-1.007927656E-1,6.291911751E-2,3.512475174E-3
1.536649790E-1,-1.082758680E-1,5.329799280E-2,4.581489135E-3
1.558930680E-1,-1.084285825E-1,4.841107130E-2,8.246680722E-3
1.581409320E-1,-1.122464910E-1,4.612032697E-2,8.246680722E-3
1.603782970E-1,-1.172861308E-1,4.138612002E-2,1.191187184E-2
1.626179830E-1,-1.172861308E-1,3.894266114E-2,1.435533352E-2
1.648519910E-1,-1.160643995E-1,3.649919853E-2,1.557706390E-2
1.670889290E-1,-1.162171140E-1,3.405573592E-2,2.046398632E-2
1.693262340E-1,-1.149953827E-1,3.161227703E-2,2.046398632E-2
1.715620740E-1,-1.102611795E-1,2.794708498E-2,2.412917651E-2
1.737988290E-1,-1.102611795E-1,2.428189293E-2,2.657263726E-2
1.760352190E-1,-1.053742543E-1,2.535090782E-2,2.901609987E-2
1.782722790E-1,-1.029307917E-1,2.290744707E-2,3.268129006E-2
1.805091570E-1,-9.575312585E-2,1.908953860E-2,3.390302137E-2
1.827454850E-1,-9.330966324E-2,1.664607786E-2,3.649919853E-2
1.849800430E-1,-9.086620808E-2,1.893682219E-2,3.772092983E-2
1.872202770E-1,-8.093964309E-2,2.122756653E-2,4.138612002E-2
1.894560560E-1,-7.727445662E-2,1.756237634E-2,4.138612002E-2
1.916937260E-1,-7.483099401E-2,1.863138936E-2,4.642575979E-2
1.939297500E-1,-6.887505949E-2,1.252273750E-2,4.642575979E-2
1.961663830E-1,-6.520986557E-2,6.414085161E-3,4.642575979E-2
1.984034440E-1,-6.154467165E-2,5.039638374E-3,4.520402849E-2
2.006404430E-1,-5.543602258E-2,2.596177394E-3,4.398229718E-2
2.028782970E-1,-4.825835302E-2,-3.665191587E-3,4.535674304E-2
2.051146250E-1,-4.337143153E-2,-5.039638374E-3,4.413501546E-2
2.073506480E-1,-3.970624134E-2,-9.926560335E-3,4.535674304E-2
2.095869160E-1,-3.848451003E-2,-8.704829961E-3,4.413501546E-2
2.118235490E-1,-3.726277873E-2,-9.926560335E-3,4.413501546E-2
2.140605480E-1,-3.604105115E-2,-8.704829961E-3,4.413501546E-2
2.162974260E-1,-3.344487399E-2,-6.414085161E-3,4.413501546E-2
2.185343030E-1,-2.962696366E-2,7.635815418E-4,4.184427112E-2
2.207713630E-1,-3.069597855E-2,5.650503561E-3,4.184427112E-2
2.230088510E-1,-3.298672289E-2,1.420261711E-2,3.940080851E-2
2.252444470E-1,-3.420845419E-2,1.908953860E-2,4.184427112E-2
2.274812630E-1,-3.405573592E-2,2.275473066E-2,4.062253982E-2
2.297178360E-1,-3.512475267E-2,3.130684420E-2,4.062253982E-2
2.319547740E-1,-3.741549700E-2,3.985895589E-2,4.062253982E-2
2.341909800E-1,-3.863722831E-2,4.352414981E-2,3.940080851E-2
2.364283460E-1,-4.092797264E-2,5.085453019E-2,4.184427112E-2
2.386656510E-1,-4.199698567E-2,5.803219974E-2,3.817907721E-2
2.409033210E-1,-4.444044828E-2,6.062837690E-2,4.184427112E-2
2.431387950E-1,-4.444044828E-2,6.291911751E-2,4.321871698E-2
2.453755510E-1,-4.810563847E-2,6.062837690E-2,4.428773001E-2
2.476121230E-1,-4.810563847E-2,6.185010448E-2,4.550946131E-2
2.498491830E-1,-4.825835302E-2,5.696318299E-2,4.673119262E-2
2.520857560E-1,-4.963280261E-2,5.222897977E-2,4.795292020E-2
2.543225720E-1,-4.963280261E-2,4.734205827E-2,4.673119262E-2
2.565596930E-1,-4.978551716E-2,4.123340547E-2,4.673119262E-2
2.587974870E-1,-5.100724846E-2,3.649919853E-2,4.413501546E-2
2.610330820E-1,-5.131268129E-2,2.672535367E-2,4.413501546E-2
2.632698990E-1,-5.146539584E-2,1.939497143E-2,4.413501546E-2
2.655064100E-1,-4.657847434E-2,1.450804994E-2,4.169155285E-2
2.677435320E-1,-4.550946131E-2,4.734205548E-3,3.924809024E-2
2.699802260E-1,-4.321871698E-2,-6.261368748E-3,3.680463135E-2
2.722161880E-1,-4.108068720E-2,-1.588249579E-2,3.558290005E-2
2.744522720E-1,-3.252857551E-2,-2.458732575E-2,3.313944116E-2
2.766917130E-1,-3.023782931E-2,-3.191770986E-2,3.313944116E-2
2.789273690E-1,-2.428189293E-2,-4.062253982E-2,3.191770986E-2
2.811643080E-1,-1.939497143E-2,-4.795292020E-2,3.191770986E-2
2.834003920E-1,-1.710422710E-2,-5.406157300E-2,3.069597855E-2
2.856375740E-1,-1.099557430E-2,-5.665775016E-2,3.069597855E-2
2.878746350E-1,-4.886921961E-3,-5.787948146E-2,2.947424725E-2
2.901111460E-1,-3.665191587E-3,-5.787948146E-2,3.069597855E-2
2.923479630E-1,3.817907767E-3,-5.451972410E-2,2.962696366E-2
2.945854510E-1,7.483099122E-3,-5.329799280E-2,3.084869497E-2
2.968213510E-1,1.496619824E-2,-5.100724846E-2,3.344487399E-2
2.990581680E-1,1.756237634E-2,-4.382958263E-2,3.344487399E-2
3.012946180E-1,2.015855350E-2,-3.649919853E-2,3.222314268E-2
3.035320450E-1,2.290744707E-2,-2.565634064E-2,2.993239649E-2
3.057683730E-1,2.306016348E-2,-1.725694351E-2,3.115412779E-2
3.080052500E-1,1.939497143E-2,-9.926560335E-3,3.359758854E-2
3.102422500E-1,1.970040426E-2,-1.374446787E-3,3.237585723E-2
3.124800430E-1,1.970040426E-2,4.734205548E-3,3.115412779E-2
3.147154550E-1,1.618792862E-2,1.328631863E-2,3.237585723E-2
3.169507460E-1,1.511891466E-2,1.817324013E-2,3.375030309E-2
3.191818250E-1,9.162978269E-3,2.428189293E-2,3.115412779E-2
3.214257210E-1,5.345070735E-3,2.565634064E-2,3.237585723E-2
3.236629040E-1,2.901609987E-3,2.565634064E-2,3.237585723E-2
3.259012460E-1,-3.207042580E-3,2.214386500E-2,3.115412779E-2
3.281366590E-1,-9.315694682E-3,2.596177347E-2,3.222314268E-2
3.303740250E-1,-1.802052557E-2,2.367102914E-2,3.344487399E-2
3.326096810E-1,-2.183843218E-2,2.000583708E-2,3.100141138E-2
3.348465590E-1,-2.428189293E-2,1.771509275E-2,2.718350291E-2
3.370833140E-1,-3.176499158E-2,1.175915636E-2,2.840523422E-2
3.393201920E-1,-3.802636266E-2,3.359758761E-3,2.703078650E-2
3.415570080E-1,-4.184427112E-2,-1.527163113E-4,2.947424725E-2
3.437940070E-1,-4.566217586E-2,-6.108652335E-3,3.054326214E-2
3.460318000E-1,-4.825835302E-2,-9.773843922E-3,3.054326214E-2
3.482681290E-1,-5.192354694E-2,-1.084285788E-2,3.054326214E-2
3.505039690E-1,-5.940664560E-2,-1.679879427E-2,3.283400834E-2
3.527404800E-1,-5.955936015E-2,-2.168571576E-2,3.527746722E-2
3.549770520E-1,-6.337726861E-2,-2.153299935E-2,3.894266114E-2
3.572139290E-1,-6.337726861E-2,-2.153299935E-2,4.260785133E-2
3.594509900E-1,-6.704246253E-2,-2.153299935E-2,4.505131021E-2
3.616878670E-1,-7.452555746E-2,-2.260201424E-2,5.115996301E-2
3.639249890E-1,-7.452555746E-2,-2.138028294E-2,5.360342562E-2
3.661624160E-1,-7.941248268E-2,-2.489275858E-2,5.345070735E-2
3.683980120E-1,-8.185594529E-2,-2.367102914E-2,5.589416996E-2
3.706348890E-1,-8.567385375E-2,-2.229658142E-2,5.955936015E-2
3.728716440E-1,-9.178250283E-2,-2.107485011E-2,5.833763257E-2
3.751085220E-1,-9.666942805E-2,-1.970040426E-2,5.711590126E-2
3.773453380E-1,-1.003346145E-1,-1.970040426E-2,5.574145541E-2
3.795820940E-1,-1.039998084E-1,-2.076941915E-2,5.696318299E-2
3.818191540E-1,-1.114829108E-1,-2.306016348E-2,5.451972410E-2
3.840564590E-1,-1.151480973E-1,-2.061670274E-2,5.192354694E-2
3.862922990E-1,-1.212567538E-1,-2.046398632E-2,4.825835302E-2
3.885291150E-1,-1.247692257E-1,-1.802052557E-2,4.581489414E-2
3.907657480E-1,-1.272126883E-1,-1.542434748E-2,4.581489414E-2
3.930027480E-1,-1.258382350E-1,-1.069014147E-2,4.459316283E-2
3.952393200E-1,-1.233947799E-1,-7.024950348E-3,4.214970022E-2
3.974762590E-1,-1.258382350E-1,-4.581489135E-3,4.214970022E-2
3.997137460E-1,-1.281289905E-1,3.054326226E-4,4.214970022E-2
4.019480600E-1,-1.230893433E-1,7.483099122E-3,4.474587739E-2
4.041746230E-1,-1.206458881E-1,9.926560335E-3,4.596760869E-2
4.064230970E-1,-1.192714423E-1,1.588249579E-2,4.841107130E-2
4.086599750E-1,-1.142318025E-1,1.939497143E-2,5.100724846E-2
4.109000870E-1,-1.128573567E-1,2.550362423E-2,5.222897977E-2
4.131339120E-1,-1.090394482E-1,3.145955876E-2,5.345070735E-2
4.153706680E-1,-1.065959856E-1,3.756821156E-2,5.467243865E-2
4.176084610E-1,-1.052215397E-1,4.474587739E-2,5.726861581E-2
4.198416150E-1,-1.001819000E-1,4.948008433E-2,5.849034712E-2
4.220671400E-1,-1.024726480E-1,5.558873713E-2,5.971207842E-2
4.243169570E-1,-9.514226019E-2,5.910121277E-2,6.230825558E-2
4.265540180E-1,-9.621127695E-2,6.276640296E-2,6.352998316E-2
4.287944960E-1,-9.498954564E-2,6.398813426E-2,6.352998316E-2
4.310279550E-1,-9.498954564E-2,6.276640296E-2,6.475171447E-2
4.332644670E-1,-9.621127695E-2,6.276640296E-2,6.352998316E-2
4.355015880E-1,-9.758572280E-2,5.803219974E-2,6.352998316E-2
4.377393200E-1,-9.269879758E-2,5.299255997E-2,6.597344577E-2
4.399749770E-1,-9.529497474E-2,5.177082866E-2,6.597344577E-2
4.422117930E-1,-9.789115191E-2,4.337143153E-2,6.337726861E-2
4.444483050E-1,-9.911288321E-2,4.214970022E-2,6.215553731E-2
4.466853650E-1,-9.789115191E-2,4.214970022E-2,5.849034712E-2
4.489190070E-1,-1.003346145E-1,3.863722831E-2,5.849034712E-2
4.511469740E-1,-9.666942805E-2,3.726277873E-2,5.726861581E-2
4.533955700E-1,-9.437867999E-2,3.359758854E-2,5.726861581E-2
4.556334240E-1,-9.315694869E-2,2.871066704E-2,5.726861581E-2
4.578721940E-1,-8.949175477E-2,2.626720630E-2,5.360342562E-2
4.601061410E-1,-8.582656831E-2,2.611448988E-2,5.238169432E-2
4.623425920E-1,-8.216137439E-2,2.611448988E-2,5.497787148E-2
4.645794080E-1,-7.849618047E-2,2.367102914E-2,5.253441259E-2
4.668161630E-1,-7.223481685E-2,2.596177347E-2,4.764748737E-2
4.690527360E-1,-6.490442902E-2,2.458732575E-2,4.764748737E-2
4.712871720E-1,-5.879577994E-2,2.443460934E-2,4.657847434E-2
4.735138560E-1,-5.513058975E-2,2.199114859E-2,4.780020565E-2
4.757521370E-1,-4.886921868E-2,2.550362423E-2,4.657847434E-2
4.780003670E-1,-3.665191308E-2,2.031126991E-2,4.306599870E-2
4.802393810E-1,-3.039054573E-2,2.260201424E-2,4.184427112E-2
4.824765640E-1,-2.046398632E-2,2.367102914E-2,4.077525437E-2
4.847105120E-1,-1.053742506E-2,2.718350291E-2,3.833179548E-2
4.869475720E-1,-5.497787148E-3,3.436116874E-2,3.970624134E-2
4.891851210E-1,4.276056774E-3,3.527746722E-2,3.970624134E-2
4.914216930E-1,1.053742506E-2,3.772092983E-2,3.863722831E-2
4.936575330E-1,1.786780916E-2,3.878994286E-2,4.108068720E-2
4.958941050E-1,2.290744707E-2,4.352414981E-2,4.001167417E-2
4.981306780E-1,3.161227703E-2,4.566217586E-2,3.878994286E-2
5.003677990E-1,3.543018550E-2,4.932736978E-2,3.772092983E-2
5.026047990E-1,4.031710699E-2,5.161811411E-2,3.894266114E-2
5.048414320E-1,4.291328415E-2,5.283984542E-2,3.894266114E-2
5.070784920E-1,4.291328415E-2,5.528330430E-2,3.772092983E-2
5.093130500E-1,4.184427112E-2,6.017022580E-2,3.527746722E-2
5.115402230E-1,4.184427112E-2,6.017022580E-2,3.649919853E-2
5.137888810E-1,4.306599870E-2,6.001751125E-2,3.649919853E-2
5.160220350E-1,3.940080851E-2,6.261368841E-2,3.649919853E-2
5.182531750E-1,4.062253982E-2,6.368270516E-2,3.405573592E-2
5.204985360E-1,3.436116874E-2,6.017022580E-2,3.649919853E-2
5.227313240E-1,3.313944116E-2,5.910121277E-2,3.772092983E-2
5.249581310E-1,3.054326214E-2,5.543602258E-2,3.878994286E-2
5.272103280E-1,2.443460934E-2,5.192354694E-2,4.001167417E-2
5.294458630E-1,2.183843218E-2,4.596760869E-2,4.123340547E-2
5.316870740E-1,1.542434748E-2,4.001167417E-2,4.230241850E-2
5.339192520E-1,1.786780916E-2,3.512475267E-2,4.230241850E-2
5.361563120E-1,1.527163107E-2,2.535090782E-2,4.108068720E-2
5.383929460E-1,1.267545391E-2,2.061670274E-2,4.352414981E-2
5.406299450E-1,1.130100712E-2,1.450804994E-2,4.459316283E-2
5.428668220E-1,6.261368748E-3,7.330383174E-3,4.337143153E-2
5.451046150E-1,5.955935922E-3,1.527163113E-4,4.581489414E-2
5.473400890E-1,3.359758761E-3,-7.177666761E-3,4.444044828E-2
5.495767830E-1,5.803219974E-3,-1.328631863E-2,4.932736978E-2
5.518118910E-1,5.650503561E-3,-1.802052557E-2,5.054909736E-2
5.540439470E-1,1.832595794E-3,-2.290744707E-2,5.054909736E-2
5.562869890E-1,2.901609987E-3,-2.901609987E-2,5.421429127E-2
5.585242320E-1,4.581489484E-4,-2.641992271E-2,5.665775016E-2
5.607636730E-1,-9.162978968E-4,-3.375030309E-2,5.787948146E-2
5.629986580E-1,1.527163113E-4,-3.985895589E-2,5.894849449E-2
5.652341930E-1,2.596177394E-3,-4.230241850E-2,5.772676691E-2
5.674707660E-1,-1.221730490E-3,-4.703662544E-2,5.772676691E-2
5.697046520E-1,-2.443460980E-3,-5.070181563E-2,5.772676691E-2
5.719329240E-1,-3.817907767E-3,-5.787948146E-2,5.772676691E-2
5.741812760E-1,-1.527163084E-3,-6.398813426E-2,5.650503561E-2
5.764182750E-1,-5.192354787E-3,-6.643159688E-2,5.390885845E-2
5.786580210E-1,-5.345070735E-3,-7.009678334E-2,5.146539584E-2
5.808901990E-1,-4.123340361E-3,-7.376197726E-2,4.902193695E-2
5.831184710E-1,-7.941247895E-3,-7.971791178E-2,4.535674304E-2
5.853653580E-1,-7.941247895E-3,-8.093964309E-2,4.413501546E-2
5.876018690E-1,-6.566801574E-3,-7.849618047E-2,4.169155285E-2
5.898413090E-1,-4.123340361E-3,-7.971791178E-2,3.802636266E-2
5.920729990E-1,-2.901609987E-3,-7.620543987E-2,3.680463135E-2
5.943003550E-1,-1.527163084E-3,-7.498370856E-2,3.558290005E-2
5.965494400E-1,9.162978968E-4,-7.254024595E-2,3.313944116E-2
5.987838760E-1,5.955935922E-3,-7.024950534E-2,2.962696366E-2
6.010137950E-1,1.466076635E-2,-6.795875728E-2,2.718350291E-2
6.032594010E-1,1.710422710E-2,-6.322455406E-2,2.840523422E-2
6.054961560E-1,2.596177347E-2,-5.604688451E-2,2.611448988E-2
6.077359630E-1,2.977968007E-2,-5.009094998E-2,2.244929783E-2
6.099698500E-1,3.604105115E-2,-4.657847434E-2,2.260201424E-2
6.122066050E-1,4.108068720E-2,-4.184427112E-2,2.260201424E-2
6.144437270E-1,4.612032697E-2,-3.466660157E-2,2.153299935E-2
6.166812760E-1,5.115996301E-2,-2.748893574E-2,1.786780916E-2
6.189169930E-1,5.497787148E-2,-2.626720630E-2,1.908953860E-2
6.211533830E-1,5.619960278E-2,-2.275473066E-2,1.679879427E-2
6.233901990E-1,6.001751125E-2,-2.031126991E-2,1.313360315E-2
6.256273210E-1,6.383541971E-2,-1.313360315E-2,1.435533352E-2
6.278644420E-1,6.887505949E-2,-1.206458826E-2,1.328631863E-2
6.301011970E-1,7.009678334E-2,-1.328631863E-2,1.084285788E-2
6.323388680E-1,7.376197726E-2,-1.084285788E-2,7.177666761E-3
6.345749520E-1,7.376197726E-2,-9.773843922E-3,5.955935922E-3
6.368110360E-1,7.498370856E-2,-1.450804994E-2,5.955935922E-3
6.390473650E-1,7.483099401E-2,-1.939497143E-2,3.512475174E-3
6.412843030E-1,7.727445662E-2,-2.672535367E-2,-3.054326226E-4
6.435213640E-1,7.971791178E-2,-2.794708498E-2,-2.596177394E-3
6.457584240E-1,7.712173462E-2,-3.161227703E-2,-3.970623948E-3
6.479949350E-1,7.834346592E-2,-3.405573592E-2,-3.970623948E-3
6.502318130E-1,7.574728876E-2,-3.878994286E-2,-2.748893574E-3
6.524694840E-1,7.681630552E-2,-4.367686436E-2,-2.748893574E-3
6.547052010E-1,7.925976813E-2,-4.749477282E-2,-2.748893574E-3
6.569422620E-1,7.437284291E-2,-4.856378585E-2,-1.527163084E-3
6.591785290E-1,7.544185966E-2,-5.222897977E-2,9.162978968E-4
6.614156510E-1,7.299839705E-2,-5.222897977E-2,4.581489135E-3
6.636524060E-1,7.284568250E-2,-5.574145541E-2,4.581489135E-3
6.658862920E-1,7.422012836E-2,-4.978551716E-2,8.246680722E-3
6.681143200E-1,7.055493444E-2,-4.963280261E-2,9.468411095E-3
6.703635880E-1,7.177666575E-2,-4.963280261E-2,1.191187184E-2
6.725993670E-1,7.162395120E-2,-5.085453019E-2,1.679879427E-2
6.748389910E-1,6.795875728E-2,-4.963280261E-2,1.924225502E-2
6.770728770E-1,6.688974798E-2,-4.596760869E-2,1.924225502E-2
6.793098770E-1,6.566801667E-2,-4.230241850E-2,2.290744707E-2
6.815465100E-1,6.444628537E-2,-3.863722831E-2,2.412917651E-2
6.837832650E-1,6.337726861E-2,-3.375030309E-2,2.901609987E-2
6.860202650E-1,5.726861581E-2,-2.886338346E-2,3.023782931E-2
6.882576920E-1,5.482515693E-2,-2.504547499E-2,3.390302137E-2
6.904937150E-1,5.375614017E-2,-2.015855350E-2,3.634648025E-2
6.927273570E-1,4.886921868E-2,-1.649336144E-2,3.756821156E-2
6.949552020E-1,4.764748737E-2,-1.160643995E-2,3.878994286E-2
6.972039200E-1,4.535674304E-2,-6.719517522E-3,4.001167417E-2
6.994407970E-1,3.924809024E-2,-4.123340361E-3,4.108068720E-2
7.016807880E-1,3.802636266E-2,7.635815418E-4,4.108068720E-2
7.039156510E-1,3.069597855E-2,9.162978968E-4,4.352414981E-2
7.061521620E-1,2.580905706E-2,5.803219974E-3,4.108068720E-2
7.083877580E-1,2.474004216E-2,8.246680722E-3,4.230241850E-2
7.106243300E-1,1.970040426E-2,8.399397135E-3,4.474587739E-2
7.128610850E-1,1.725694351E-2,7.177666761E-3,4.459316283E-2
7.150979630E-1,1.343903504E-2,3.665191587E-3,4.581489414E-2
7.173347790E-1,7.330383174E-3,3.665191587E-3,4.703662544E-2
7.195715960E-1,7.330383174E-3,4.886921961E-3,4.825835302E-2
7.218087170E-1,1.069014193E-3,1.374446787E-3,4.810563847E-2
7.240462660E-1,-1.527163113E-4,-2.138028387E-3,4.810563847E-2
7.262820450E-1,-1.527163084E-3,-4.581489135E-3,5.177082866E-2
7.285186170E-1,-1.527163084E-3,-4.581489135E-3,5.299255997E-2
7.307522590E-1,-3.970623948E-3,-7.024950348E-3,5.299255997E-2
7.329805310E-1,-2.748893574E-3,-7.024950348E-3,5.421429127E-2
7.352291270E-1,-2.748893574E-3,-8.246680722E-3,5.543602258E-2
7.374659440E-1,-2.748893574E-3,-8.246680722E-3,5.421429127E-2
7.397059340E-1,-5.345070735E-3,-1.175915636E-2,5.299255997E-2
7.419404920E-1,-4.123340361E-3,-1.420261711E-2,5.543602258E-2
7.441760880E-1,-2.901609987E-3,-1.191187184E-2,5.543602258E-2
7.464129040E-1,-1.679879380E-3,-1.191187184E-2,5.177082866E-2
7.486494160E-1,-4.581489484E-4,-1.191187184E-2,5.054909736E-2
7.508862930E-1,9.162978968E-4,-9.468411095E-3,5.054909736E-2
7.531231090E-1,3.359758761E-3,-9.468411095E-3,5.054909736E-2
7.553599260E-1,4.581489135E-3,-7.177666761E-3,5.054909736E-2
7.575970470E-1,4.581489135E-3,-5.955935922E-3,5.192354694E-2
7.598345960E-1,7.177666761E-3,-4.734205548E-3,5.070181563E-2
7.620704360E-1,1.084285788E-2,0.000000000E0,5.314527452E-2
7.643072520E-1,1.588249579E-2,7.177666761E-3,5.574145541E-2
7.665438250E-1,1.725694351E-2,8.399397135E-3,5.696318299E-2
7.687807630E-1,2.092213556E-2,1.069014147E-2,5.940664560E-2
7.710171520E-1,2.107485011E-2,1.557706390E-2,5.940664560E-2
7.732545180E-1,2.596177347E-2,2.153299935E-2,6.444628537E-2
7.754925550E-1,2.840523422E-2,1.908953860E-2,6.688974798E-2
7.777291880E-1,2.977968007E-2,2.275473066E-2,6.688974798E-2
7.799646620E-1,3.344487399E-2,2.138028294E-2,6.811147183E-2
7.822010510E-1,3.100141138E-2,2.153299935E-2,6.811147183E-2
7.844382950E-1,3.329215571E-2,2.015855350E-2,6.933320314E-2
7.866760880E-1,2.962696366E-2,1.908953860E-2,6.933320314E-2
7.889155900E-1,2.962696366E-2,1.786780916E-2,6.811147183E-2
7.911481950E-1,2.840523422E-2,1.664607786E-2,6.811147183E-2
7.933854990E-1,2.825251780E-2,1.175915636E-2,6.933320314E-2
7.956219490E-1,2.321287990E-2,9.468411095E-3,7.040221989E-2
7.978589490E-1,2.321287990E-2,3.359758761E-3,6.918048859E-2
8.000952770E-1,2.183843218E-2,-1.527163113E-4,6.429356337E-2
8.023321550E-1,1.572977938E-2,-1.221730490E-3,6.658431143E-2
8.045691540E-1,1.328631863E-2,-2.443460980E-3,6.658431143E-2
8.068060930E-1,1.557706390E-2,-4.886921961E-3,6.780604273E-2
8.090427870E-1,1.298088674E-2,-1.099557430E-2,6.780604273E-2
8.112796030E-1,1.175915636E-2,-1.328631863E-2,6.536258012E-2
8.135171520E-1,8.093964309E-3,-1.450804994E-2,7.024950534E-2
8.157529310E-1,8.093964309E-3,-1.572977938E-2,6.780604273E-2
8.179866950E-1,6.719517522E-3,-1.817324013E-2,6.765332818E-2
8.202147840E-1,6.719517522E-3,-1.695151068E-2,6.902777404E-2
8.224636850E-1,4.123340361E-3,-2.168571576E-2,6.887505949E-2
8.247000740E-1,5.497787148E-3,-2.168571576E-2,6.765332818E-2
8.269397600E-1,7.788531948E-3,-2.412917651E-2,6.765332818E-2
8.291738290E-1,9.162978269E-3,-2.183843218E-2,6.902777404E-2
8.314115000E-1,6.566801574E-3,-2.657263726E-2,6.520986557E-2
8.336473400E-1,9.010262787E-3,-3.268129006E-2,6.154467165E-2
8.358840960E-1,1.267545391E-2,-3.161227703E-2,6.032294407E-2
8.381204240E-1,1.511891466E-2,-3.405573592E-2,6.032294407E-2
8.403575450E-1,1.496619824E-2,-3.772092983E-2,5.665775016E-2
8.425945450E-1,1.740965992E-2,-3.894266114E-2,5.787948146E-2
8.448314220E-1,2.000583708E-2,-3.894266114E-2,5.421429127E-2
8.470692150E-1,2.489275858E-2,-3.909537569E-2,5.070181563E-2
8.493056650E-1,2.993239649E-2,-3.802636266E-2,4.948008433E-2
8.515413220E-1,3.604105115E-2,-3.573561832E-2,4.703662544E-2
8.537791760E-1,3.848451003E-2,-3.573561832E-2,4.718934000E-2
8.560206920E-1,4.352414981E-2,-3.588833287E-2,4.352414981E-2
8.582551890E-1,4.856378585E-2,-2.977968007E-2,4.108068720E-2
8.604884050E-1,5.115996301E-2,-2.748893574E-2,3.741549700E-2
8.627211930E-1,5.482515693E-2,-2.626720630E-2,3.878994286E-2
8.649496480E-1,5.864306539E-2,-2.031126991E-2,3.634648025E-2
8.671997690E-1,6.123924255E-2,-1.435533352E-2,3.634648025E-2
8.694353650E-1,6.383541971E-2,-7.024950348E-3,3.527746722E-2
8.716753560E-1,6.383541971E-2,-4.581489135E-3,3.283400834E-2
8.739087540E-1,6.398813426E-2,-2.290744567E-3,3.161227703E-2
8.761459360E-1,6.520986557E-2,1.527163113E-4,3.039054573E-2
8.783829360E-1,6.414084882E-2,5.039638374E-3,2.916881628E-2
8.806196910E-1,6.414084882E-2,8.704829961E-3,2.794708498E-2
8.828563240E-1,6.429356337E-2,1.359175146E-2,2.916881628E-2
8.850939950E-1,6.307183951E-2,1.603521220E-2,2.916881628E-2
8.873295910E-1,5.818491429E-2,1.725694351E-2,3.039054573E-2
8.895665300E-1,5.574145541E-2,1.740965992E-2,3.039054573E-2
8.918030410E-1,4.841107130E-2,2.107485011E-2,3.145955876E-2
8.940401620E-1,4.841107130E-2,2.351831272E-2,2.901609987E-2
8.962769790E-1,4.245513305E-2,2.855795063E-2,2.779436857E-2
8.985137950E-1,3.390302137E-2,3.237585723E-2,2.901609987E-2
9.007512840E-1,2.641992271E-2,3.252857551E-2,3.145955876E-2
9.029900530E-1,1.786780916E-2,3.023782931E-2,3.130684420E-2
9.052239390E-1,9.315694682E-3,3.283400834E-2,3.008511290E-2
9.074607560E-1,4.428773187E-3,3.527746722E-2,2.993239649E-2
9.096969000E-1,-5.345070735E-3,3.802636266E-2,2.993239649E-2
9.119344490E-1,-1.160643995E-2,3.680463135E-2,2.733621933E-2
9.141712050E-1,-1.649336144E-2,3.695734590E-2,2.489275858E-2
9.164080820E-1,-2.015855350E-2,3.588833287E-2,2.489275858E-2
9.186470350E-1,-2.764165215E-2,3.481931984E-2,2.367102914E-2
9.208862320E-1,-2.886338346E-2,3.359758854E-2,2.718350291E-2
9.231180430E-1,-3.512475267E-2,3.008511290E-2,2.840523422E-2
9.253547380E-1,-3.512475267E-2,2.886338346E-2,3.084869497E-2
9.275903940E-1,-3.772092983E-2,2.519819140E-2,2.840523422E-2
9.298284920E-1,-3.894266114E-2,2.290744707E-2,3.207042441E-2
9.320651870E-1,-4.016438872E-2,2.168571576E-2,3.207042441E-2
9.343018810E-1,-4.031710699E-2,1.557706390E-2,3.558290005E-2
9.365391860E-1,-4.031710699E-2,1.802052557E-2,3.558290005E-2
9.387766740E-1,-4.169155285E-2,1.557706390E-2,3.924809024E-2
9.410123300E-1,-4.413501546E-2,1.802052557E-2,4.291328415E-2
9.432490860E-1,-4.031710699E-2,1.679879427E-2,4.306599870E-2
9.454856580E-1,-4.153883830E-2,2.168571576E-2,4.795292020E-2
9.477208880E-1,-4.276056588E-2,2.412917651E-2,4.917465150E-2
9.499519670E-1,-4.398229718E-2,2.412917651E-2,5.283984542E-2
9.521931160E-1,-3.787364438E-2,2.764165215E-2,5.650503561E-2
9.544212660E-1,-3.909537569E-2,2.764165215E-2,5.772676691E-2
9.566727920E-1,-4.153883830E-2,2.657263726E-2,6.139195710E-2
9.589063730E-1,-4.153883830E-2,3.130684420E-2,6.261368841E-2
9.611464250E-1,-4.138612002E-2,3.497203439E-2,6.383541971E-2
9.633799450E-1,-4.260785133E-2,3.390302137E-2,6.505715102E-2
9.656170670E-1,-4.382958263E-2,3.741549700E-2,6.505715102E-2
9.678535170E-1,-4.505131021E-2,3.634648025E-2,6.505715102E-2
9.700901500E-1,-4.505131021E-2,3.756821156E-2,6.383541971E-2
9.723274550E-1,-5.238169432E-2,3.772092983E-2,6.139195710E-2
9.745626850E-1,-5.604688451E-2,3.894266114E-2,6.001751125E-2
9.767913830E-1,-5.726861581E-2,3.772092983E-2,5.635231733E-2
9.790374770E-1,-6.230825558E-2,3.665191308E-2,5.513058975E-2
9.812741710E-1,-6.597344577E-2,3.313944116E-2,5.390885845E-2
9.835131840E-1,-7.086037099E-2,3.191770986E-2,4.886921868E-2
9.857448740E-1,-7.208210230E-2,3.313944116E-2,4.398229718E-2
9.879726570E-1,-7.452555746E-2,2.962696366E-2,4.276056588E-2
9.902225960E-1,-7.834346592E-2,2.489275858E-2,4.153883830E-2
9.924592910E-1,-8.200865984E-2,2.611448988E-2,3.772092983E-2
9.946979390E-1,-8.185594529E-2,3.100141138E-2,3.772092983E-2
9.969294450E-1,-8.063421398E-2,3.222314268E-2,3.543018550E-2
9.991599140E-1,-8.185594529E-2,3.222314268E-2,3.283400834E-2
1.001405092E0,-8.048149943E-2,3.695734590E-2,3.176499158E-2
1.003641908E0,-8.170322329E-2,3.695734590E-2,2.932153270E-2
1.005880799E0,-8.032877743E-2,4.428773001E-2,2.932153270E-2
1.008112977E0,-7.651086897E-2,5.146539584E-2,2.687807009E-2
1.010339540E0,-7.651086897E-2,5.024366826E-2,2.687807009E-2
1.012576783E0,-7.773260027E-2,5.390885845E-2,2.443460934E-2
1.014815858E0,-7.391469181E-2,5.864306539E-2,2.336559631E-2
1.017071535E0,-7.009678334E-2,6.352998316E-2,2.214386500E-2
1.019298769E0,-6.490442902E-2,7.315111160E-2,2.214386500E-2
1.021528688E0,-5.879577994E-2,7.544185966E-2,2.229658142E-2
1.023777589E0,-5.619960278E-2,7.773260027E-2,2.351831272E-2
1.026010133E0,-5.375614017E-2,8.017606288E-2,2.107485011E-2
1.028250612E0,-4.764748737E-2,8.002334833E-2,2.489275858E-2
1.030481691E0,-4.138612002E-2,7.987063378E-2,2.367102914E-2
1.032717042E0,-3.634648025E-2,8.582656831E-2,2.367102914E-2
1.034944643E0,-3.649919853E-2,8.231408894E-2,2.489275858E-2
1.037193666E0,-3.039054573E-2,7.727445662E-2,2.367102914E-2
1.039430299E0,-2.672535367E-2,7.483099401E-2,2.504547499E-2
1.041670290E0,-2.306016348E-2,7.223481685E-2,2.382374369E-2
1.043904115E0,-1.954768784E-2,6.612616032E-2,2.382374369E-2
1.046141725E0,-1.588249579E-2,6.246097013E-2,2.260201424E-2
1.048377504E0,-1.359175146E-2,5.879577994E-2,2.382374369E-2
1.050614381E0,-1.496619824E-2,5.268712714E-2,2.260201424E-2
1.052850893E0,-1.130100712E-2,4.902193695E-2,2.260201424E-2
1.055087709E0,-1.023199316E-2,4.046982154E-2,2.382374369E-2
1.057324525E0,-7.788531948E-3,3.558290005E-2,2.260201424E-2
1.059561647E0,-9.315694682E-3,2.718350291E-2,2.122756653E-2
1.061799684E0,-9.315694682E-3,2.474004216E-2,1.634064503E-2
1.064036012E0,-1.175915636E-2,1.985312067E-2,1.634064503E-2
1.066271791E0,-8.246680722E-3,1.130100712E-2,1.389718428E-2
1.068508546E0,-9.621127509E-3,7.635815535E-3,1.145372353E-2
1.070746828E0,-8.552113548E-3,4.581489484E-4,8.857546374E-3
1.072981691E0,-9.773843922E-3,-3.207042580E-3,3.970623948E-3
1.075218568E0,-7.330383174E-3,-8.093964309E-3,2.748893574E-3
1.077454958E0,-8.552113548E-3,-8.093964309E-3,1.527163084E-3
1.079692811E0,-6.108652335E-3,-1.053742506E-2,3.054326226E-4
1.081930238E0,-4.886921961E-3,-1.053742506E-2,-3.359758761E-3
1.084165651E0,-2.443460980E-3,-7.024950348E-3,-3.207042580E-3
1.086402650E0,-2.290744567E-3,-3.359758761E-3,-6.872233935E-3
1.088639223E0,2.596177394E-3,-4.734205548E-3,-8.093964309E-3
1.090876405E0,3.970623948E-3,1.374446787E-3,-1.298088674E-2
1.093113099E0,1.023199316E-2,2.443460980E-3,-1.420261711E-2
1.095349672E0,9.010262787E-3,2.443460980E-3,-1.542434748E-2
1.097586976E0,1.023199316E-2,6.108652335E-3,-2.031126991E-2
1.099825197E0,1.282817032E-2,6.108652335E-3,-2.260201424E-2
1.102059938E0,1.404990070E-2,6.108652335E-3,-2.626720630E-2
1.104296937E0,1.649336144E-2,2.290744567E-3,-2.748893574E-2
1.106533022E0,1.649336144E-2,2.290744567E-3,-2.993239649E-2
1.108770387E0,2.015855350E-2,1.069014193E-3,-3.481931984E-2
1.111007142E0,2.260201424E-2,-2.596177394E-3,-3.726277873E-2
1.113243959E0,2.382374369E-2,-3.817907767E-3,-3.848451003E-2
1.115480836E0,2.626720630E-2,-6.261368748E-3,-3.970624134E-2
1.117718568E0,2.977968007E-2,-1.007927675E-2,-4.092797264E-2
1.119954164E0,3.344487399E-2,-1.007927675E-2,-4.092797264E-2
1.122191041E0,3.466660157E-2,-1.618792862E-2,-3.848451003E-2
1.124427553E0,3.833179548E-2,-1.756237634E-2,-3.848451003E-2
1.126664674E0,4.566217586E-2,-1.878410578E-2,-3.711006418E-2
1.128901490E0,4.932736978E-2,-1.893682219E-2,-3.588833287E-2
1.131138490E0,4.932736978E-2,-2.015855350E-2,-3.466660157E-2
1.133376039E0,5.299255997E-2,-2.015855350E-2,-3.466660157E-2
1.135612611E0,5.787948146E-2,-1.664607786E-2,-3.344487399E-2
1.137848390E0,5.803219974E-2,-1.298088674E-2,-2.962696366E-2
1.140084779E0,6.291911751E-2,-1.069014147E-2,-2.840523422E-2
1.142321596E0,6.795875728E-2,-7.177666761E-3,-2.596177347E-2
1.144558656E0,6.933320314E-2,-1.069014193E-3,-2.214386500E-2
1.146795472E0,6.811147183E-2,1.527163113E-4,-2.092213556E-2
1.149032045E0,7.422012836E-2,2.443460980E-3,-1.847867295E-2
1.151269166E0,7.544185966E-2,4.886921961E-3,-1.481348183E-2
1.153506898E0,7.559457421E-2,9.621127509E-3,-1.237002108E-2
1.155742555E0,7.925976813E-2,8.399397135E-3,-1.237002108E-2
1.157979371E0,8.414668590E-2,8.246680722E-3,-8.552113548E-3
1.160215883E0,8.429940045E-2,1.557706390E-2,-6.108652335E-3
1.162453004E0,8.185594529E-2,1.924225502E-2,-4.886921961E-3
1.164689760E0,7.941248268E-2,1.817324013E-2,-2.443460980E-3
1.166926332E0,7.803803682E-2,1.695151068E-2,-0.000000000E0
1.169163453E0,7.681630552E-2,1.939497143E-2,3.665191587E-3
1.171401185E0,7.315111160E-2,2.061670274E-2,6.108652335E-3
1.173636842E0,6.704246253E-2,2.076941915E-2,8.399397135E-3
1.175873658E0,5.711590126E-2,2.214386500E-2,1.206458826E-2
1.178110170E0,5.467243865E-2,2.229658142E-2,1.817324013E-2
1.180347291E0,4.993823543E-2,2.962696366E-2,2.428189293E-2
1.182584047E0,4.123340547E-2,3.100141138E-2,3.145955876E-2
1.184820558E0,3.252857551E-2,2.748893574E-2,3.878994286E-2
1.187057435E0,2.000583708E-2,2.290744707E-2,4.352414981E-2
1.189295167E0,1.007927675E-2,1.588249579E-2,4.581489414E-2
1.191530824E0,-0.000000000E0,7.483099122E-3,4.703662544E-2
1.193767762E0,-1.130100712E-2,-1.985311974E-3,4.688390717E-2
1.196004457E0,-2.122756653E-2,-7.788531948E-3,4.795292020E-2
1.198241334E0,-3.008511290E-2,-2.229658142E-2,5.024366826E-2
1.200478151E0,-4.260785133E-2,-3.054326214E-2,5.253441259E-2
1.202712159E0,-5.268712714E-2,-3.878994286E-2,5.238169432E-2
1.204940980E0,-6.276640296E-2,-5.192354694E-2,5.604688451E-2
1.207189271E0,-7.406741381E-2,-6.017022580E-2,5.589416996E-2
1.209425111E0,-8.414668590E-2,-6.979135424E-2,5.818491429E-2
1.211664675E0,-9.773843735E-2,-7.315111160E-2,5.803219974E-2
1.213898500E0,-1.039998084E-1,-7.910704613E-2,5.558873713E-2
1.216135316E0,-1.114829108E-1,-8.139779419E-2,5.543602258E-2
1.218372194E0,-1.162171140E-1,-7.880161703E-2,5.543602258E-2
1.220609193E0,-1.237002090E-1,-7.987063378E-2,5.406157300E-2
1.222846131E0,-1.298088580E-1,-8.216137439E-2,5.283984542E-2
1.225083864E0,-1.371392459E-1,-7.956519723E-2,5.161811411E-2
1.227319337E0,-1.432479024E-1,-7.590000331E-2,5.024366826E-2
1.229556032E0,-1.432479024E-1,-7.223481685E-2,4.780020565E-2
1.231790223E0,-1.455386430E-1,-6.979135424E-2,4.413501546E-2
1.234019533E0,-1.479821056E-1,-6.719517708E-2,3.924809024E-2
1.236266237E0,-1.492038369E-1,-6.597344577E-2,3.558290005E-2
1.238503236E0,-1.514945775E-1,-5.986479297E-2,3.191770986E-2
1.240742861E0,-1.525636017E-1,-5.742133409E-2,2.703078650E-2
1.242977968E0,-1.513418704E-1,-5.742133409E-2,1.970040426E-2
1.245213746E0,-1.498146951E-1,-4.780020565E-2,1.359175146E-2
1.247450502E0,-1.472185254E-1,-4.428773001E-2,7.635815535E-3
1.249686830E0,-1.482875347E-1,-3.573561832E-2,2.748893574E-3
1.251923829E0,-1.443169117E-1,-2.489275858E-2,-2.138028387E-3
1.254160463E0,-1.415680200E-1,-1.038470957E-2,-9.315694682E-3
1.256397523E0,-1.397354305E-1,1.267545391E-2,-1.420261711E-2
1.258634401E0,-1.366810948E-1,4.169155285E-2,-2.015855350E-2
1.260872194E0,-1.324050426E-1,6.963863969E-2,-2.122756653E-2
1.263107728E0,-1.295034289E-1,9.376781434E-2,-1.985312067E-2
1.265344606E0,-1.229366288E-1,1.130100712E-1,-1.970040426E-2
1.267581056E0,-1.175915599E-1,1.372919679E-1,-2.076941915E-2
1.269817933E0,-1.120937690E-1,1.626428664E-1,-1.939497143E-2
1.272051820E0,-1.128573567E-1,1.893682331E-1,-2.061670274E-2
1.274280152E0,-1.098030284E-1,2.183843255E-1,-1.802052557E-2
1.276529908E0,-1.116356254E-1,2.475531399E-1,-1.664607786E-2
1.278766176E0,-1.146899462E-1,2.816088796E-1,-1.527163107E-2
1.281004701E0,-1.214094684E-1,3.109304011E-1,-1.160643995E-2
1.283238283E0,-1.295034289E-1,3.376557529E-1,-9.162978269E-3
1.285475160E0,-1.377501190E-1,3.608686328E-1,7.635815418E-4
1.287712282E0,-1.461495161E-1,3.769038618E-1,6.872233935E-3
1.289949098E0,-1.618792862E-1,3.917173445E-1,1.649336144E-2
1.292185853E0,-1.727221459E-1,4.028656185E-1,2.504547499E-2
1.294422731E0,-1.850921661E-1,4.091269970E-1,3.604105115E-2
1.296660463E0,-2.037235647E-1,4.059199691E-1,4.688390717E-2
1.298895997E0,-2.197587788E-1,4.001167417E-1,5.528330430E-2
1.301132631E0,-2.373211533E-1,3.871358633E-1,6.352998316E-2
1.303369203E0,-2.562579811E-1,3.668245673E-1,7.315111160E-2
1.305606569E0,-2.739730477E-1,3.477350473E-1,8.032877743E-2
1.307843385E0,-2.930625975E-1,3.190243840E-1,8.857546002E-2
1.310079957E0,-3.135266006E-1,2.878702581E-1,9.804387391E-2
1.312316957E0,-3.339905739E-1,2.554943860E-1,1.062905490E-1
1.314554506E0,-3.507893682E-1,2.170098722E-1,1.145372316E-1
1.316787477E0,-3.700316250E-1,1.785253733E-1,1.240056455E-1
1.319015565E0,-3.894265890E-1,1.400408596E-1,1.346957833E-1
1.321263978E0,-4.086688459E-1,1.039998084E-1,1.466076523E-1
1.323500551E0,-4.266893864E-1,6.795875728E-2,1.585195363E-1
1.325740297E0,-4.410447180E-1,3.558290005E-2,1.705841124E-1
1.327974122E0,-4.587597847E-1,1.038470957E-2,1.812742651E-1
1.330211305E0,-4.706716835E-1,-2.092213556E-2,1.933388561E-1
1.332448793E0,-4.810563922E-1,-4.382958263E-2,2.054034323E-1
1.334684388E0,-4.902193546E-1,-6.551529467E-2,2.186897546E-1
1.336921205E0,-4.955644310E-1,-8.109235764E-2,2.295326144E-1
1.339157777E0,-4.970915914E-1,-9.208793938E-2,2.417499274E-1
1.341394899E0,-4.972442985E-1,-1.004873365E-1,2.527455091E-1
1.343631715E0,-4.961752892E-1,-1.004873365E-1,2.625193298E-1
1.345868776E0,-4.912883639E-1,-1.018617824E-1,2.700024247E-1
1.348106568E0,-4.825835526E-1,-9.712757170E-2,2.773328125E-1
1.350340089E0,-4.738787115E-1,-9.132435173E-2,2.848159075E-1
1.352566652E0,-4.589125216E-1,-7.941248268E-2,2.935207486E-1
1.354814943E0,-4.463897645E-1,-6.627888232E-2,3.034473062E-1
1.357051820E0,-4.340197444E-1,-5.681046844E-2,3.084869385E-1
1.359292238E0,-4.178318381E-1,-4.627304152E-2,3.173444867E-1
1.361526246E0,-3.992004395E-1,-3.573561832E-2,3.260493279E-1
1.363762574E0,-3.793473244E-1,-2.275473066E-2,3.361285925E-1
1.365999574E0,-3.643811047E-1,-1.084285788E-2,3.436116874E-1
1.368237062E0,-3.494149148E-1,2.138028387E-3,3.535382748E-1
1.370473024E0,-3.344487250E-1,1.527163107E-2,3.610213697E-1
1.372707215E0,-3.193297982E-1,3.069597855E-2,3.674354553E-1
1.374935853E0,-3.043636084E-1,4.612032697E-2,3.785837293E-1
1.377183168E0,-2.955060601E-1,6.185010448E-2,3.848451078E-1
1.379416322E0,-2.791654170E-1,8.093964309E-2,3.947716653E-1
1.381646180E0,-2.703078687E-1,9.651670605E-2,4.022547603E-1
1.383899476E0,-2.649627924E-1,1.133155003E-1,4.109596014E-1
1.386131166E0,-2.548835278E-1,1.301143020E-1,4.196644127E-1
1.388370668E0,-2.498438805E-1,1.434006095E-1,4.283692539E-1
1.390602418E0,-2.507601976E-1,1.579086632E-1,4.346306324E-1
1.392840455E0,-2.467895597E-1,1.687515229E-1,4.382958114E-1
1.395077516E0,-2.478585690E-1,1.846340150E-1,4.444044530E-1
1.397314271E0,-2.513710558E-1,1.956295967E-1,4.494441152E-1
1.399550844E0,-2.561052442E-1,2.029599845E-1,4.518875778E-1
1.401787904E0,-2.632829249E-1,2.153300047E-1,4.567744732E-1
1.404025453E0,-2.692388594E-1,2.238821089E-1,4.566217661E-1
1.406261354E0,-2.764165103E-1,2.324342281E-1,4.566217661E-1
1.408498170E0,-2.825251818E-1,2.399173230E-1,4.554000497E-1
1.410734743E0,-2.910772860E-1,2.400700450E-1,4.554000497E-1
1.412971803E0,-3.032945991E-1,2.415972054E-1,4.540255964E-1
1.415208558E0,-3.081815243E-1,2.464841306E-1,4.503603876E-1
1.417442445E0,-3.179553747E-1,2.478585690E-1,4.477642179E-1
1.419668825E0,-3.251330256E-1,2.553416789E-1,4.477642179E-1
1.421909303E0,-3.313944042E-1,2.518292069E-1,4.416555762E-1
1.424155885E0,-3.373503387E-1,2.567161322E-1,4.378376603E-1
1.426395143E0,-3.471241891E-1,2.593123019E-1,4.341724813E-1
1.428631593E0,-3.521638215E-1,2.570215464E-1,4.291328490E-1
1.430865663E0,-3.570507467E-1,2.571742535E-1,4.242459238E-1
1.433102296E0,-3.607159257E-1,2.583959997E-1,4.218024611E-1
1.435339113E0,-3.642283976E-1,2.622139156E-1,4.193589985E-1
1.437576295E0,-3.617849350E-1,2.596177161E-1,4.156937897E-1
1.439814088E0,-3.605632186E-1,2.571742535E-1,4.095851481E-1
1.442049684E0,-3.579670191E-1,2.608394623E-1,4.046982229E-1
1.444286500E0,-3.543018401E-1,2.594650090E-1,3.998112977E-1
1.446520570E0,-3.494149148E-1,2.570215464E-1,3.949243724E-1
1.448750306E0,-3.433062732E-1,2.556470931E-1,3.938553631E-1
1.450996644E0,-3.309362531E-1,2.530509233E-1,3.889684379E-1
1.453233522E0,-3.187189400E-1,2.503020465E-1,3.854559660E-1
1.455473329E0,-3.087923825E-1,2.489275932E-1,3.781255782E-1
1.457708619E0,-2.929098904E-1,2.461786866E-1,3.770565689E-1
1.459943971E0,-2.770273983E-1,2.409863323E-1,3.723223805E-1
1.462180665E0,-2.597704530E-1,2.382374406E-1,3.649919927E-1
1.464416994E0,-2.376265824E-1,2.353358418E-1,3.616322279E-1
1.466654298E0,-2.130392492E-1,2.312124968E-1,3.568980098E-1
1.468890626E0,-1.908953935E-1,2.296853364E-1,3.546072841E-1
1.471127504E0,-1.663080603E-1,2.243402600E-1,3.523165286E-1
1.473361696E0,-1.392772794E-1,2.212859392E-1,3.477350473E-1
1.475591005E0,-1.134682223E-1,2.183843255E-1,3.466660380E-1
1.477838258E0,-8.903361112E-2,2.093740702E-1,3.455969989E-1
1.480074830E0,-6.078109145E-2,2.040289938E-1,3.457497358E-1
1.482314210E0,-3.756821156E-2,1.974621862E-1,3.460551500E-1
1.484548890E0,-1.435533352E-2,1.898263693E-1,3.437644243E-1
1.486787172E0,1.023199316E-2,1.881465018E-1,3.414736688E-1
1.489022035E0,3.359758854E-2,1.840231568E-1,3.391829133E-1
1.491259889E0,5.818491429E-2,1.786780804E-1,3.393356502E-1
1.493496156E0,7.666359097E-2,1.806633919E-1,3.370448947E-1
1.495730592E0,9.621127695E-2,1.742493063E-1,3.371976018E-1
1.497961977E0,1.157589629E-1,1.690569520E-1,3.361285925E-1
1.500205385E0,1.317941695E-1,1.675297916E-1,3.313944042E-1
1.502442689E0,1.501201391E-1,1.623374373E-1,3.278819323E-1
1.504681032E0,1.661553532E-1,1.571450830E-1,3.255911767E-1
1.506916383E0,1.808161139E-1,1.556179225E-1,3.207042515E-1
1.509153138E0,1.918116808E-1,1.481348276E-1,3.159700334E-1
1.511387818E0,2.066251636E-1,1.466076523E-1,3.074179292E-1
1.513611878E0,2.151772827E-1,1.403462887E-1,3.002402782E-1
1.515851625E0,2.237294018E-1,1.377501190E-1,2.929098904E-1
1.518099672E0,2.324342281E-1,1.363756657E-1,2.831360400E-1
1.520339662E0,2.374738604E-1,1.363756657E-1,2.735149264E-1
1.522576479E0,2.437352389E-1,1.362229437E-1,2.637410760E-1
1.524810426E0,2.524400651E-1,1.372919679E-1,2.515237629E-1
1.527047425E0,2.573269904E-1,1.359175146E-1,2.429716438E-1
1.529284730E0,2.646573782E-1,1.308778822E-1,2.321287990E-1
1.531520570E0,2.671008408E-1,1.235474944E-1,2.185370475E-1
1.533757326E0,2.721404731E-1,1.211040318E-1,2.026545405E-1
1.535990480E0,2.806925774E-1,1.185078546E-1,1.954768747E-1
1.538217836E0,2.808452845E-1,1.172861308E-1,1.844813079E-1
1.540467592E0,2.881756723E-1,1.171334088E-1,1.734857261E-1
1.542703187E0,2.932153046E-1,1.146899462E-1,1.637118906E-1
1.544939637E0,2.907718420E-1,1.195768714E-1,1.588249654E-1
1.547179078E0,2.909245789E-1,1.207986027E-1,1.527163088E-1
1.549414918E0,2.884811163E-1,1.207986027E-1,1.478293836E-1
1.551650392E0,2.848159075E-1,1.220203340E-1,1.427897513E-1
1.553877748E0,2.799290121E-1,1.233947799E-1,1.379028261E-1
1.556125062E0,2.739730477E-1,1.272126883E-1,1.379028261E-1
1.558361879E0,2.690861523E-1,1.296561509E-1,1.330159009E-1
1.560601564E0,2.556470931E-1,1.336267740E-1,1.279762685E-1
1.562836793E0,2.458732575E-1,1.362229437E-1,1.229366288E-1
1.565073304E0,2.399173230E-1,1.435533315E-1,1.168279797E-1
1.567308900E0,2.364048511E-1,1.484402567E-1,1.070541367E-1
1.569545473E0,2.292271852E-1,1.534798890E-1,9.483683109E-2
1.571782289E0,2.255619913E-1,1.524108797E-1,8.002334833E-2
1.574019410E0,2.244929820E-1,1.560760736E-1,6.169738993E-2
1.576256166E0,2.260201424E-1,1.595885456E-1,4.092797264E-2
1.578492799E0,2.310597748E-1,1.583668143E-1,1.771509275E-2
1.580730470E0,2.336559594E-1,1.522581577E-1,-1.160643995E-2
1.582969056E0,2.448042482E-1,1.472185254E-1,-4.214970022E-2
1.585203248E0,2.559525371E-1,1.408044398E-1,-7.513642311E-2
1.587440004E0,2.733621895E-1,1.404990107E-1,-1.091921628E-1
1.589676210E0,2.933680415E-1,1.401935667E-1,-1.446223408E-1
1.591913698E0,3.156646192E-1,1.348485053E-1,-1.860084683E-1
1.594150453E0,3.393356502E-1,1.307251602E-1,-2.298380435E-1
1.596387025E0,3.640756905E-1,1.266018152E-1,-2.724458873E-1
1.598624086E0,3.926336467E-1,1.200350225E-1,-3.162754774E-1
1.600861574E0,4.248567820E-1,1.145372316E-1,-3.601050675E-1
1.603097291E0,4.595233798E-1,1.139263660E-1,-4.014911950E-1
1.605334291E0,4.978551865E-1,1.094975919E-1,-4.415028691E-1
1.607570619E0,5.351179838E-1,1.123992056E-1,-4.790710807E-1
1.609807740E0,5.736024380E-1,1.091921628E-1,-5.192354321E-1
1.612044435E0,6.131559610E-1,1.049161032E-1,-5.543602109E-1
1.614281129E0,6.563746929E-1,1.027780771E-1,-5.870414972E-1
1.616518312E0,6.971499324E-1,9.957103431E-2,-6.172793508E-1
1.618755372E0,7.365507483E-1,9.269879758E-2,-6.438519955E-1
1.620991273E0,7.797694802E-1,8.582656831E-2,-6.679811478E-1
1.623228090E0,8.226827979E-1,7.528914511E-2,-6.921103001E-1
1.625465028E0,8.633053303E-1,6.230825558E-2,-7.139487267E-1
1.627702150E0,8.999572396E-1,4.581489414E-2,-7.307475209E-1
1.629939088E0,9.341656566E-1,2.947424725E-2,-7.476990819E-1
1.632172608E0,9.697485566E-1,1.420261711E-2,-7.596109509E-1
1.634401490E0,1.001360893E0,-7.024950348E-3,-7.728972435E-1
1.636650087E0,1.026711702E0,-3.191770986E-2,-7.814493775E-1
1.638885621E0,1.050840974E0,-5.894849449E-2,-7.861835957E-1
1.641125368E0,1.070083141E0,-8.857546002E-2,-7.935139537E-1
1.643358888E0,1.085507512E0,-1.166752651E-1,-7.971791625E-1
1.645596010E0,1.095892191E0,-1.508837193E-1,-7.984008789E-1
1.647830934E0,1.101390004E0,-1.861611903E-1,-7.997753024E-1
1.650063051E0,1.103222609E0,-2.141082734E-1,-7.973318696E-1
1.652306520E0,1.101390004E0,-2.420553565E-1,-7.950411439E-1
1.654544374E0,1.093448758E0,-2.722931802E-1,-7.927503586E-1
1.656781740E0,1.086576581E0,-3.011565804E-1,-7.869471312E-1
1.659016725E0,1.071304917E0,-3.251330256E-1,-7.785477638E-1
1.661253236E0,1.058476806E0,-3.455969989E-1,-7.689266205E-1
1.663490297E0,1.037096500E0,-3.657555580E-1,-7.594582438E-1
1.665727113E0,1.015868902E0,-3.762930036E-1,-7.473936081E-1
1.667963685E0,9.883799553E-1,-3.915646076E-1,-7.293730974E-1
1.670200807E0,9.584475756E-1,-4.019493461E-1,-7.113525867E-1
1.672438478E0,9.288206100E-1,-4.013384581E-1,-6.931793094E-1
1.674673951E0,8.941540122E-1,-4.017966092E-1,-6.727153659E-1
1.676910951E0,8.571966290E-1,-3.975205719E-1,-6.508769393E-1
1.679147218E0,8.139779568E-1,-3.966042697E-1,-6.269004345E-1
1.681384462E0,7.719809413E-1,-3.933972120E-1,-6.003278494E-1
1.683621339E0,7.226535678E-1,-3.875939846E-1,-5.725334287E-1
1.685857728E0,6.733261943E-1,-3.854559660E-1,-5.471825600E-1
1.688094850E0,6.215553880E-1,-3.782783151E-1,-5.170974135E-1
1.690332521E0,5.612324476E-1,-3.662137091E-1,-4.844161272E-1
1.692568239E0,5.032002330E-1,-3.578143120E-1,-4.518875778E-1
1.694805116E0,4.404338300E-1,-3.468187451E-1,-4.181372523E-1
1.697041810E0,3.715587854E-1,-3.358231783E-1,-3.819434941E-1
1.699279909E0,3.037527502E-1,-3.236058652E-1,-3.457497358E-1
1.701517518E0,2.299907655E-1,-3.075706363E-1,-3.084869385E-1
1.703740968E0,1.560760736E-1,-2.952006161E-1,-2.735149264E-1
1.705990113E0,7.864890248E-2,-2.828305960E-1,-2.423607856E-1
1.708225648E0,9.162978968E-4,-2.751947939E-1,-2.110539377E-1
1.710465334E0,-7.544185966E-2,-2.689334154E-1,-1.823432744E-1
1.712698915E0,-1.530217379E-1,-2.661845386E-1,-1.585195363E-1
1.714935121E0,-2.319760770E-1,-2.683225572E-1,-1.434006095E-1
1.717172914E0,-3.074179292E-1,-2.753475010E-1,-1.305724531E-1
1.719409486E0,-3.828597963E-1,-2.883284092E-1,-1.214094684E-1
1.721646486E0,-4.546364546E-1,-3.100140989E-1,-1.172861308E-1
1.723883363E0,-5.241223574E-1,-3.390302062E-1,-1.180497110E-1
1.726120912E0,-5.862779021E-1,-3.692680299E-1,-1.211040318E-1
1.728356569E0,-6.461427212E-1,-4.106541574E-1,-1.302670091E-1
1.730593568E0,-7.037167549E-1,-4.557054639E-1,-1.395827085E-1
1.732829896E0,-7.527387142E-1,-5.080871582E-1,-1.511891484E-1
1.735067018E0,-7.954992652E-1,-5.630650520E-1,-1.652390510E-1
1.737303773E0,-8.323038816E-1,-6.169738770E-1,-1.792889535E-1
1.739540651E0,-8.616254330E-1,-6.710354686E-1,-1.919644028E-1
1.741777711E0,-8.836165667E-1,-7.275404930E-1,-2.058615834E-1
1.744015260E0,-8.969029188E-1,-7.782423496E-1,-2.183843255E-1
1.746251039E0,-9.037751555E-1,-8.242099285E-1,-2.345722616E-1
1.748487611E0,-9.057604671E-1,-8.642216325E-1,-2.481640130E-1
1.750724123E0,-9.040805697E-1,-9.031642675E-1,-2.593123019E-1
1.752960939E0,-8.910996914E-1,-9.361509681E-1,-2.703078687E-1
1.755197816E0,-8.765916228E-1,-9.582948685E-1,-2.825251818E-1
1.757434633E0,-8.523097038E-1,-9.769262671E-1,-2.935207486E-1
1.759671754E0,-8.229882121E-1,-9.873109460E-1,-3.029891551E-1
1.761909303E0,-7.921395302E-1,-9.902125597E-1,-3.101668358E-1
1.764145143E0,-7.600690722E-1,-9.885326624E-1,-3.147483170E-1
1.766381898E0,-7.206682563E-1,-9.856310487E-1,-3.181080818E-1
1.768618227E0,-6.759223938E-1,-9.706648588E-1,-3.164281845E-1
1.770855348E0,-6.327036619E-1,-9.569203854E-1,-3.135266006E-1
1.773092347E0,-5.816964507E-1,-9.337075353E-1,-3.080287874E-1
1.775329225E0,-5.319108963E-1,-9.068294764E-1,-3.026837409E-1
1.777567018E0,-4.871650338E-1,-8.810204268E-1,-2.948952019E-1
1.779803468E0,-4.386012554E-1,-8.515461683E-1,-2.808452845E-1
1.782039125E0,-3.900374472E-1,-8.148942590E-1,-2.667953968E-1
1.784275697E0,-3.437644243E-1,-7.770205736E-1,-2.539672256E-1
1.786512514E0,-2.987131178E-1,-7.365507483E-1,-2.364048511E-1
1.788749635E0,-2.585487068E-1,-6.924157739E-1,-2.199114859E-1
1.790986451E0,-2.182316035E-1,-6.447682381E-1,-2.083050460E-1
1.793223268E0,-1.853975952E-1,-5.980370641E-1,-2.041817009E-1
1.795460267E0,-1.524108797E-1,-5.525276065E-1,-1.976149082E-1
1.797697511E0,-1.221730486E-1,-5.119050741E-1,-1.971567571E-1
1.799933168E0,-9.422596544E-2,-4.723515511E-1,-1.980730593E-1
1.802170228E0,-6.887505949E-2,-4.364632070E-1,-2.063197345E-1
1.804406862E0,-4.596760869E-2,-4.101960063E-1,-2.182316035E-1
1.806643983E0,-2.092213556E-2,-3.912591934E-1,-2.325869352E-1
1.808880739E0,-7.635815418E-4,-3.735440969E-1,-2.495384514E-1
1.811117555E0,2.183843218E-2,-3.617849350E-1,-2.675589919E-1
1.813354615E0,4.046982154E-2,-3.549126983E-1,-2.906191349E-1
1.815589600E0,5.558873713E-2,-3.515529633E-1,-3.113885522E-1
1.817817750E0,7.284568250E-2,-3.543018401E-1,-3.405573666E-1
1.820064699E0,8.903361112E-2,-3.558290005E-1,-3.636175394E-1
1.822300783E0,1.027780771E-1,-3.584251702E-1,-3.892738819E-1
1.824540407E0,1.149953827E-1,-3.660610020E-1,-4.161519408E-1
1.826774660E0,1.324050426E-1,-3.700316250E-1,-4.392121136E-1
1.829011598E0,1.472185254E-1,-3.715587854E-1,-4.598288238E-1
1.831248658E0,1.583668143E-1,-3.790418804E-1,-4.805982411E-1
1.833485230E0,1.707368344E-1,-3.816380501E-1,-5.013676286E-1
1.835718019E0,1.831068546E-1,-3.831652105E-1,-5.170974135E-1
1.837958314E0,1.918116808E-1,-3.808744848E-1,-5.317581892E-1
1.840195192E0,2.031126916E-1,-3.798054755E-1,-5.462662578E-1
1.842433412E0,2.081523389E-1,-3.750712574E-1,-5.584835410E-1
1.844669130E0,2.157881409E-1,-3.691153228E-1,-5.694791079E-1
1.846906068E0,2.160935849E-1,-3.570507467E-1,-5.791002512E-1
1.849143556E0,2.127338201E-1,-3.423899710E-1,-5.839871764E-1
1.851380189E0,2.081523389E-1,-3.289509416E-1,-5.864306092E-1
1.853615968E0,1.986839175E-1,-3.069597781E-1,-5.876523852E-1
1.855852357E0,1.879937798E-1,-2.897028327E-1,-5.827654600E-1
1.858089174E0,1.759291887E-1,-2.713768780E-1,-5.742133260E-1
1.860326234E0,1.553124934E-1,-2.503020465E-1,-5.633704662E-1
1.862563906E0,1.397354305E-1,-2.281581759E-1,-5.474879742E-1
1.864803041E0,1.191187203E-1,-2.046398520E-1,-5.303837657E-1
1.867036744E0,9.117163718E-2,-1.811215430E-1,-5.073235631E-1
1.869274476E0,6.795875728E-2,-1.588249654E-1,-4.767803252E-1
1.871509278E0,3.863722831E-2,-1.363756657E-1,-4.476115108E-1
1.873746949E0,8.093964309E-3,-1.127046347E-1,-4.111123085E-1
1.875983461E0,-2.244929783E-2,-8.903361112E-2,-3.721696436E-1
1.878220582E0,-5.543602258E-2,-6.169738993E-2,-3.294090927E-1
1.880457399E0,-9.224065393E-2,-3.924809024E-2,-2.904664278E-1
1.882695436E0,-1.313360333E-1,-1.542434748E-2,-2.503020465E-1
1.884936158E0,-1.682933718E-1,1.069014193E-3,-2.090686262E-1
1.887168763E0,-2.113593817E-1,1.649336144E-2,-1.701259762E-1
1.889404298E0,-2.532036304E-1,2.580905706E-2,-1.337794960E-1
1.891639710E0,-2.964223623E-1,3.268129006E-2,-9.987647086E-2
1.893877748E0,-3.434589803E-1,3.237585723E-2,-6.475171447E-2
1.896114808E0,-3.880521357E-1,2.840523422E-2,-3.084869497E-2
1.898351442E0,-4.364632070E-1,1.725694351E-2,4.581489484E-4
1.900585206E0,-4.862487316E-1,3.665191587E-3,3.298672289E-2
1.902813295E0,-5.334380865E-1,-6.261368748E-3,6.566801667E-2
1.905062806E0,-5.844452977E-1,-2.229658142E-2,9.697485715E-2
1.907298463E0,-6.366742849E-1,-3.588833287E-2,1.258382350E-1
1.909538515E0,-6.901249886E-1,-5.054909736E-2,1.559233516E-1
1.911769227E0,-7.434229851E-1,-5.925392732E-2,1.835650057E-1
1.913997682E0,-8.003861904E-1,-6.551529467E-2,2.124283910E-1
1.916245668E0,-8.571966290E-1,-6.673702598E-2,2.376265824E-1
1.918482728E0,-9.140071273E-1,-6.688974798E-2,2.628247738E-1
1.920723390E0,-9.695958495E-1,-6.826419383E-2,2.855795026E-1
1.922957094E0,-1.026253581E0,-6.352998316E-2,3.058907688E-1
1.925192750E0,-1.082911372E0,-5.513058975E-2,3.249803185E-1
1.927429506E0,-1.139416456E0,-4.673119262E-2,3.417791128E-1
1.929663636E0,-1.194699645E0,-3.344487399E-2,3.584251702E-1
1.931893373E0,-1.249830246E0,-1.664607786E-2,3.740022480E-1
1.934139650E0,-1.298852205E0,2.443460980E-3,3.857614100E-1
1.936376588E0,-1.346346974E0,3.130684420E-2,3.953825235E-1
1.938616335E0,-1.393689036E0,6.505715102E-2,4.024074674E-1
1.940851442E0,-1.437213182E0,1.047633886E-1,4.059199691E-1
1.943087037E0,-1.477072120E0,1.430951804E-1,4.031710625E-1
1.945323793E0,-1.514334917E0,1.838704348E-1,3.969096839E-1
1.947560365E0,-1.545489073E0,2.244929820E-1,3.796527386E-1
1.949797426E0,-1.571756244E0,2.542726696E-1,3.601050675E-1
1.952033876E0,-1.589624047E0,2.751947939E-1,3.294090927E-1
1.954270326E0,-1.602452278E0,2.948952019E-1,2.950479090E-1
1.956507875E0,-1.609477162E0,3.034473062E-1,2.583959997E-1
1.958745485E0,-1.607797384E0,3.071125150E-1,2.167044431E-1
1.960981385E0,-1.597718000E0,3.045163155E-1,1.704314053E-1
1.963217836E0,-1.586569786E0,2.958115041E-1,1.226311997E-1
1.965451417E0,-1.565342188E0,2.892446816E-1,7.513642311E-2
1.967679445E0,-1.538311362E0,2.755002379E-1,2.641992271E-2
1.969928041E0,-1.505019307E0,2.614503205E-1,-2.474004216E-2
1.972164857E0,-1.465465665E0,2.509129047E-1,-7.223481685E-2
1.974404970E0,-1.418581843E0,2.354885489E-1,-1.183551401E-1
1.976639772E0,-1.371850610E0,2.200642079E-1,-1.621847153E-1
1.978875367E0,-1.316414595E0,2.079996169E-1,-2.032654136E-1
1.981112184E0,-1.259756804E0,1.948660165E-1,-2.408336252E-1
1.983346803E0,-1.197143197E0,1.802052408E-1,-2.721404731E-1
1.985578126E0,-1.129489779E0,1.667662114E-1,-3.022255898E-1
1.987822084E0,-1.063058257E0,1.508837193E-1,-3.286454976E-1
1.990059449E0,-9.954048991E-1,1.423316002E-1,-3.475823104E-1
1.992299256E0,-9.204211831E-1,1.336267740E-1,-3.605632186E-1
1.994530641E0,-8.454375267E-1,1.272126883E-1,-3.733913898E-1
1.996757631E0,-7.701483369E-1,1.270599663E-1,-3.825543523E-1
1.999005861E0,-6.998988390E-1,1.316414624E-1,-3.880521357E-1
2.001242799E0,-6.247624159E-1,1.362229437E-1,-3.909537494E-1
2.003479860E0,-5.529857874E-1,1.482875347E-1,-3.903428912E-1
2.005702088E0,-4.813618064E-1,1.589776874E-1,-3.909537494E-1
2.007939272E0,-4.158465266E-1,1.722639948E-1,-3.891211748E-1
2.010176698E0,-3.492622077E-1,1.855503172E-1,-3.848451078E-1
2.012416566E0,-2.886338234E-1,1.976149082E-1,-3.830125034E-1
2.014654726E0,-2.316706479E-1,2.122756690E-1,-3.799581826E-1
2.016902955E0,-1.785253733E-1,2.258674204E-1,-3.770565689E-1
2.019139833E0,-1.327104717E-1,2.383901626E-1,-3.692680299E-1
2.021376772E0,-8.827003092E-2,2.507601976E-1,-3.627012372E-1
2.023610780E0,-5.238169432E-2,2.622139156E-1,-3.538436890E-1
2.025847780E0,-2.275473066E-2,2.713768780E-1,-3.474296033E-1
2.028084840E0,1.985311974E-3,2.793181241E-1,-3.397938013E-1
2.030322145E0,2.290744707E-2,2.802344263E-1,-3.298672438E-1
2.032557863E0,3.649919853E-2,2.883284092E-1,-3.187189400E-1
2.034794496E0,4.153883830E-2,2.907718420E-1,-3.112358451E-1
2.037031312E0,4.398229718E-2,2.930625975E-1,-3.063489199E-1
2.039268129E0,3.527746722E-2,2.919935882E-1,-2.965750694E-1
2.041505006E0,2.779436857E-2,2.898555696E-1,-2.906191349E-1
2.043741762E0,1.527163107E-2,2.814561725E-1,-2.883284092E-1
2.045978883E0,-1.069014193E-3,2.672535479E-1,-2.848159075E-1
2.048216432E0,-2.107485011E-2,2.483167201E-1,-2.826778889E-1
2.050449342E0,-4.367686436E-2,2.292271852E-1,-2.803871334E-1
2.052679871E0,-6.750060618E-2,2.090686262E-1,-2.819143236E-1
2.054935548E0,-9.010262042E-2,1.840231568E-1,-2.846632004E-1
2.057162111E0,-1.153008118E-1,1.566869318E-1,-2.886338234E-1
2.059401918E0,-1.404990107E-1,1.232420653E-1,-2.927571833E-1
2.061633730E0,-1.646281779E-1,8.720101416E-2,-3.003929853E-1
2.063873963E0,-1.863138974E-1,4.398229718E-2,-3.081815243E-1
2.066110719E0,-2.058615834E-1,-6.566801574E-3,-3.170390725E-1
2.068346254E0,-2.251038402E-1,-5.360342562E-2,-3.258966208E-1
2.070582887E0,-2.422080636E-1,-1.078177169E-1,-3.385720551E-1
2.072819826E0,-2.554943860E-1,-1.585195363E-1,-3.523165286E-1
2.075057496E0,-2.661845386E-1,-2.093740702E-1,-3.672827184E-1
2.077293519E0,-2.733621895E-1,-2.649627924E-1,-3.785837293E-1
2.079527101E0,-2.768746614E-1,-3.182607889E-1,-3.935499489E-1
2.081754945E0,-2.777909636E-1,-3.680463135E-1,-4.048509300E-1
2.084004457E0,-2.750420868E-1,-4.153883755E-1,-4.196644127E-1
2.086240541E0,-2.684752643E-1,-4.653266072E-1,-4.283692539E-1
2.088480104E0,-2.557998300E-1,-5.093088746E-1,-4.356996417E-1
2.090713807E0,-2.394591719E-1,-5.520694852E-1,-4.444044530E-1
2.092950990E0,-2.217440903E-1,-5.960517526E-1,-4.480696619E-1
2.095187623E0,-1.991420686E-1,-6.328563690E-1,-4.517348409E-1
2.097424379E0,-1.728748679E-1,-6.698137522E-1,-4.503603876E-1
2.099661195E0,-1.438587606E-1,-6.995934248E-1,-4.502076805E-1
2.101898988E0,-1.099557430E-1,-7.281513810E-1,-4.500549734E-1
2.104134645E0,-7.971791178E-2,-7.530441284E-1,-4.450153410E-1
2.106371705E0,-5.054909736E-2,-7.728972435E-1,-4.424191415E-1
2.108607912E0,-1.542434748E-2,-7.918340564E-1,-4.335615933E-1
2.110844789E0,2.122756653E-2,-8.058840036E-1,-4.273002446E-1
2.113081544E0,5.299255997E-2,-8.174903989E-1,-4.147774875E-1
2.115315431E0,8.582656831E-2,-8.278751373E-1,-4.034765065E-1
2.117543580E0,1.127046347E-1,-8.344419003E-1,-3.911064863E-1
2.119793092E0,1.372919679E-1,-8.373435140E-1,-3.775147200E-1
2.122028871E0,1.580613852E-1,-8.329147696E-1,-3.588833213E-1
2.124268495E0,1.766927689E-1,-8.211556077E-1,-3.378084898E-1
2.126502321E0,1.941024363E-1,-8.080220222E-1,-3.205515444E-1
2.128739381E0,2.003637999E-1,-7.912232280E-1,-3.020728528E-1
2.130976198E0,2.079996169E-1,-7.744244337E-1,-2.823724449E-1
2.133209962E0,2.058615834E-1,-7.536550164E-1,-2.590068579E-1
2.135438722E0,1.999056488E-1,-7.354817390E-1,-2.443460971E-1
2.137687013E0,1.904372424E-1,-7.133378983E-1,-2.247984111E-1
2.139922914E0,1.747074574E-1,-6.899722815E-1,-2.040289938E-1
2.142162477E0,1.577559561E-1,-6.714936495E-1,-1.857030392E-1
2.144393800E0,1.382082552E-1,-6.540839672E-1,-1.685988009E-1
2.146623109E0,1.151480973E-1,-6.391177773E-1,-1.516472995E-1
2.148869935E0,8.827003092E-2,-6.178901792E-1,-1.322523206E-1
2.151106752E0,5.772676691E-2,-5.991060734E-1,-1.140790880E-1
2.153346376E0,2.962696366E-2,-5.864306092E-1,-9.834930301E-2
2.155581422E0,-2.290744567E-3,-5.761986375E-1,-8.628471941E-2
2.157817262E0,-3.665191308E-2,-5.670356750E-1,-7.559457421E-2
2.160054078E0,-7.223481685E-2,-5.589417219E-1,-6.612616032E-2
2.162290590E0,-1.065959856E-1,-5.497786999E-1,-5.650503561E-2
2.164527406E0,-1.397354305E-1,-5.442809463E-1,-5.436700583E-2
2.166764222E0,-1.765400618E-1,-5.375614166E-1,-5.345070735E-2
2.169001039E0,-2.134974003E-1,-5.355761051E-1,-5.375614017E-2
2.171238160E0,-2.455678284E-1,-5.410739183E-1,-5.406157300E-2
2.173475709E0,-2.800817192E-1,-5.427537560E-1,-5.558873713E-2
2.175711488E0,-3.097086847E-1,-5.494732857E-1,-6.078109145E-2
2.177948060E0,-3.356704414E-1,-5.551238060E-1,-6.582073122E-2
2.180184633E0,-3.639229834E-1,-5.581781268E-1,-7.101308554E-2
2.182421693E0,-3.863722682E-1,-5.697845817E-1,-7.620543987E-2
2.184658571E0,-4.111123085E-1,-5.803219676E-1,-8.124507964E-2
2.186895326E0,-4.285219610E-1,-5.908594131E-1,-8.765916526E-2
2.189132203E0,-4.447098970E-1,-6.026185751E-1,-9.269879758E-2
2.191369935E0,-4.584543705E-1,-6.096435189E-1,-9.651670605E-2
2.193605531E0,-4.732678533E-1,-6.178901792E-1,-1.015563458E-1
2.195842408E0,-4.845688641E-1,-6.249151230E-1,-1.090394482E-1
2.198078859E0,-5.006040931E-1,-6.282749176E-1,-1.140790880E-1
2.200315736E0,-5.152648091E-1,-6.316346526E-1,-1.215621829E-1
2.202552553E0,-5.363397002E-1,-6.360634565E-1,-1.253800988E-1
2.204789674E0,-5.535966158E-1,-6.406449080E-1,-1.291979998E-1
2.207027711E0,-5.710062981E-1,-6.462954283E-1,-1.305724531E-1
2.209264039E0,-5.908594131E-1,-6.531676650E-1,-1.333213449E-1
2.211499879E0,-6.068946123E-1,-6.540839672E-1,-1.310305893E-1
2.213736330E0,-6.204863787E-1,-6.550002694E-1,-1.273654103E-1
2.215969301E0,-6.328563690E-1,-6.560692787E-1,-1.189660057E-1
2.218195314E0,-6.426302195E-1,-6.473644376E-1,-1.067487001E-1
2.220446596E0,-6.498079300E-1,-6.374378800E-1,-9.453139454E-2
2.222680177E0,-6.533203721E-1,-6.229298115E-1,-7.742717117E-2
2.224910340E0,-6.542366743E-1,-6.033821702E-1,-6.017022580E-2
2.227158571E0,-6.566801667E-1,-5.900958180E-1,-3.940080851E-2
2.229393800E0,-6.539312601E-1,-5.707008839E-1,-1.481348183E-2
2.231633973E0,-6.475171447E-1,-5.514585972E-1,1.099557430E-2
2.233867128E0,-6.374378800E-1,-5.273294449E-1,3.940080851E-2
2.236104127E0,-6.322455406E-1,-5.007568002E-1,7.009678334E-2
2.238341188E0,-6.207917929E-1,-4.755585790E-1,9.972374886E-2
2.240577699E0,-6.094908118E-1,-4.550946057E-1,1.291979998E-1
2.242814637E0,-5.919284225E-1,-4.286746979E-1,1.624901593E-1
2.245048707E0,-5.794056654E-1,-4.046982229E-1,1.970040351E-1
2.247276674E0,-5.606215596E-1,-3.784310222E-1,2.315179259E-1
2.249524782E0,-5.432119370E-1,-3.556762934E-1,2.648100853E-1
2.251761781E0,-5.245805383E-1,-3.353650272E-1,2.981022298E-1
2.254001466E0,-5.057964325E-1,-3.115412891E-1,3.277291954E-1
2.256235231E0,-4.908302128E-1,-2.912299931E-1,3.572034538E-1
2.258471986E0,-4.673119187E-1,-2.747366428E-1,3.856086731E-1
2.260709047E0,-4.511239827E-1,-2.616030276E-1,4.115704596E-1
2.262946657E0,-4.363104999E-1,-2.522873580E-1,4.373795092E-1
2.265182435E0,-4.179845452E-1,-2.489275932E-1,4.584543705E-1
2.267419069E0,-4.019493461E-1,-2.383901626E-1,4.781547785E-1
2.269655824E0,-3.885102868E-1,-2.385428846E-1,5.015203953E-1
2.271892701E0,-3.752239645E-1,-2.412917763E-1,5.187773108E-1
2.274129701E0,-3.654501438E-1,-2.438879460E-1,5.360342264E-1
2.276366273E0,-3.582724631E-1,-2.501493096E-1,5.506950021E-1
2.278604371E0,-3.524692357E-1,-2.587014437E-1,5.641340613E-1
2.280840822E0,-3.538436890E-1,-2.672535479E-1,5.739079118E-1
2.283076478E0,-3.530801237E-1,-2.805398703E-1,5.824599862E-1
2.285312746E0,-3.581197560E-1,-2.913827300E-1,5.871942043E-1
2.287549623E0,-3.622430861E-1,-3.071125150E-1,5.896376967E-1
2.289786989E0,-3.698789179E-1,-3.190243840E-1,5.882632136E-1
2.292023805E0,-3.785837293E-1,-3.298672438E-1,5.856670737E-1
2.294260316E0,-3.924809098E-1,-3.440698385E-1,5.806274414E-1
2.296497193E0,-4.050036669E-1,-3.547599912E-1,5.768095255E-1
2.298735170E0,-4.185954034E-1,-3.630066812E-1,5.681046844E-1
2.300970765E0,-4.358523488E-1,-3.651446998E-1,5.618433356E-1
2.303207460E0,-4.579962194E-1,-3.671300113E-1,5.529857874E-1
2.305444093E0,-4.764748812E-1,-3.691153228E-1,5.442809463E-1
2.307680971E0,-4.960225821E-1,-3.688098788E-1,5.355761051E-1
2.309917848E0,-5.204572082E-1,-3.646865487E-1,5.219843388E-1
2.312153626E0,-5.424483418E-1,-3.581197560E-1,5.082398653E-1
2.314384949E0,-5.656611919E-1,-3.517056704E-1,4.983133376E-1
2.316617860E0,-5.923865438E-1,-3.390302062E-1,4.847215712E-1
2.318865297E0,-6.178901792E-1,-3.300199509E-1,4.709770977E-1
2.321102663E0,-6.409503818E-1,-3.161227703E-1,4.561636150E-1
2.323341310E0,-6.666067243E-1,-3.095559776E-1,4.401284158E-1
2.325575197E0,-6.921103001E-1,-2.982549667E-1,4.216497242E-1
2.327812074E0,-7.127270103E-1,-2.892446816E-1,4.043927789E-1
2.330048646E0,-7.295258045E-1,-2.791654170E-1,3.859141171E-1
2.332285951E0,-7.489207983E-1,-2.667953968E-1,3.686571717E-1
2.334523256E0,-7.620543838E-1,-2.530509233E-1,3.477350473E-1
2.336759157E0,-7.690793276E-1,-2.420553565E-1,3.233004212E-1
2.338995912E0,-7.747298479E-1,-2.249511331E-1,3.000875413E-1
2.341232484E0,-7.741189599E-1,-2.092213482E-1,2.732094824E-1
2.343469301E0,-7.673994899E-1,-1.910481006E-1,2.464841306E-1
2.345706117E0,-7.557930350E-1,-1.719585657E-1,2.196060568E-1
2.347943177E0,-7.392996550E-1,-1.528690308E-1,1.930334121E-1
2.350178101E0,-7.153232098E-1,-1.374446750E-1,1.687515229E-1
2.352405824E0,-6.864598393E-1,-1.162171140E-1,1.470658034E-1
2.354653199E0,-6.875288486E-1,-1.113301888E-1,1.360702366E-1
2.356889955E0,-7.622070909E-1,-1.426370293E-1,1.621847153E-1
2.359129457E0,-8.782715201E-1,-2.095267773E-1,1.927279830E-1
2.361363588E0,-9.769262671E-1,-2.768746614E-1,1.965458989E-1
2.363600160E0,-1.035722017E0,-3.266601861E-1,1.811215430E-1
2.365837282E0,-1.062294602E0,-3.637702465E-1,1.795943826E-1
2.368074281E0,-1.060614824E0,-3.976732790E-1,1.953241676E-1
2.370311647E0,-1.042899728E0,-4.248567820E-1,2.235766798E-1
2.372547426E0,-1.019075990E0,-4.531092942E-1,2.518292069E-1
2.374784242E0,-9.827294350E-1,-4.757113159E-1,2.776382565E-1
2.377020814E0,-9.378308654E-1,-5.021312237E-1,3.011565804E-1
2.379253969E0,-8.840747476E-1,-5.164865851E-1,3.187189400E-1
2.381479738E0,-8.252789378E-1,-5.224425197E-1,3.313944042E-1
2.383731019E0,-7.686212063E-1,-5.187773108E-1,3.381139040E-1
2.385968385E0,-7.118107080E-1,-5.114469528E-1,3.483459055E-1
2.388209535E0,-6.563746929E-1,-5.064072609E-1,3.536909819E-1
2.390441530E0,-6.056728959E-1,-4.940372705E-1,3.591887653E-1
2.392675966E0,-5.574145317E-1,-4.792237878E-1,3.633120954E-1
2.394905580E0,-5.178610086E-1,-4.714352489E-1,3.648392558E-1
2.397151979E0,-4.809036553E-1,-4.685336351E-1,3.675881624E-1
2.399388734E0,-4.427245855E-1,-4.692972302E-1,3.656028509E-1
2.401627625E0,-4.071416855E-1,-4.712825418E-1,3.681990206E-1
2.403862428E0,-3.741549551E-1,-4.851797223E-1,3.685044646E-1
2.406100160E0,-3.373503387E-1,-4.955644310E-1,3.675881624E-1
2.408335817E0,-3.069597781E-1,-5.108360648E-1,3.640756905E-1
2.410572694E0,-2.751947939E-1,-5.296201706E-1,3.593414724E-1
2.412806398E0,-2.386955917E-1,-5.534439087E-1,3.510948122E-1
2.415034242E0,-2.035708427E-1,-5.844452977E-1,3.414736688E-1
2.417279786E0,-1.647808999E-1,-6.166684628E-1,3.281873465E-1
2.419507814E0,-1.261436790E-1,-6.563746929E-1,3.124575615E-1
2.421760683E0,-8.979719132E-2,-6.969972253E-1,2.904664278E-1
2.423994508E0,-5.238169432E-2,-7.402159572E-1,2.649627924E-1
2.426233095E0,-1.725694351E-2,-7.797694802E-1,2.321287990E-1
2.428466615E0,1.924225502E-2,-8.119926453E-1,1.954768747E-1
2.430703126E0,5.711590126E-2,-8.455902338E-1,1.577559561E-1
2.432940248E0,8.994990587E-2,-8.788823485E-1,1.151480973E-1
2.435177064E0,1.241583601E-1,-9.014843702E-1,7.131851465E-2
2.437413881E0,1.585195363E-1,-9.275988936E-1,2.611448988E-2
2.439650758E0,1.878410578E-1,-9.512699246E-1,-2.260201424E-2
2.441888490E0,2.223549485E-1,-9.663888216E-1,-7.131851465E-2
2.444124086E0,2.545780838E-1,-9.755517840E-1,-1.212567538E-1
2.446359254E0,2.829833329E-1,-9.882272482E-1,-1.699732542E-1
2.448590639E0,3.115412891E-1,-9.900598526E-1,-2.186897546E-1
2.450834596E0,3.388774991E-1,-9.917397499E-1,-2.674062550E-1
2.453071412E0,3.640756905E-1,-9.837985039E-1,-3.149010241E-1
2.455309877E0,3.904955983E-1,-9.697485566E-1,-3.636175394E-1
2.457545045E0,4.109596014E-1,-9.482156038E-1,-4.135557711E-1
2.459782777E0,4.279111028E-1,-9.217956662E-1,-4.645630121E-1
2.462018312E0,4.460843503E-1,-8.918632865E-1,-5.193881989E-1
2.464254945E0,4.581489265E-1,-8.581129313E-1,-5.681046844E-1
2.466491457E0,4.653266072E-1,-8.266534209E-1,-6.143777370E-1
2.468728578E0,4.663956165E-1,-7.903069258E-1,-6.534730792E-1
2.470965455E0,4.624249935E-1,-7.538077235E-1,-6.911939979E-1
2.473199342E0,4.610505402E-1,-7.137960196E-1,-7.290676832E-1
2.475427674E0,4.511239827E-1,-6.698137522E-1,-7.620543838E-1
2.477677125E0,4.424191415E-1,-6.223189831E-1,-7.936666608E-1
2.479912721E0,4.298964143E-1,-5.783366561E-1,-8.254316449E-1
2.482149781E0,4.152356386E-1,-5.283984542E-1,-8.535314798E-1
2.484375185E0,4.002694488E-1,-4.844161272E-1,-8.816312551E-1
2.486622682E0,3.877467215E-1,-4.379903674E-1,-9.059131742E-1
2.488859926E0,3.692680299E-1,-3.903428912E-1,-9.315695167E-1
2.491099428E0,3.530801237E-1,-3.426954150E-1,-9.511171579E-1
2.493334657E0,3.384193480E-1,-2.901609838E-1,-9.779952765E-1
2.495571046E0,3.237585723E-1,-2.304489166E-1,-1.004720569E0
2.497806703E0,3.138320148E-1,-1.780672222E-1,-1.026711702E0
2.500043275E0,3.052799106E-1,-1.232420653E-1,-1.046106696E0
2.502280092E0,2.991712391E-1,-6.734789163E-2,-1.065501690E0
2.504517213E0,2.906191349E-1,-1.130100712E-2,-1.082453251E0
2.506753969E0,2.858849466E-1,5.543602258E-2,-1.098183036E0
2.508987733E0,2.835941911E-1,1.186605766E-1,-1.115134478E0
2.511213380E0,2.849686444E-1,1.841758788E-1,-1.128268123E0
2.513451478E0,2.863430977E-1,2.435825169E-1,-1.137736559E0
2.515694215E0,2.926044464E-1,3.113885522E-1,-1.148426652E0
2.517940614E0,3.040581644E-1,3.816380501E-1,-1.155451655E0
2.520177126E0,3.139847219E-1,4.529565871E-1,-1.153771758E0
2.522412904E0,3.254384696E-1,5.268712640E-1,-1.152244568E0
2.524648012E0,3.304781020E-1,5.971207619E-1,-1.155604362E0
2.526884828E0,3.316998184E-1,6.577491760E-1,-1.156520605E0
2.529121705E0,3.318525553E-1,7.195992470E-1,-1.154993415E0
2.531359437E0,3.231477141E-1,7.780895829E-1,-1.151175499E0
2.533595033E0,3.106249869E-1,8.292495608E-1,-1.146288633E0
2.535831910E0,2.892446816E-1,8.697193861E-1,-1.142623425E0
2.538068422E0,2.591595948E-1,9.054549932E-1,-1.138958216E0
2.540305482E0,2.177734673E-1,9.318749309E-1,-1.131933331E0
2.542542054E0,1.699732542E-1,9.448558092E-1,-1.123686671E0
2.544778932E0,1.159116775E-1,9.532552361E-1,-1.116814375E0
2.547016175E0,5.681046844E-2,9.567676783E-1,-1.107498646E0
2.549250734E0,-1.374446787E-3,9.457721114E-1,-1.094517827E0
2.551478090E0,-6.322455406E-2,9.349292517E-1,-1.081689596E0
2.553725892E0,-1.241583601E-1,9.141598344E-1,-1.068861485E0
2.555962709E0,-1.873829067E-1,8.935431242E-1,-1.053589821E0
2.558202333E0,-2.532036304E-1,8.681922555E-1,-1.037096500E0
2.560436342E0,-3.167336285E-1,8.390234113E-1,-1.019381404E0
2.562671998E0,-3.865249753E-1,8.089383245E-1,-9.957103729E-1
2.564906617E0,-4.500549734E-1,7.785477638E-1,-9.755517840E-1
2.567147767E0,-5.160284042E-1,7.483099103E-1,-9.529497623E-1
2.569383424E0,-5.783366561E-1,7.179193497E-1,-9.279043078E-1
2.571621095E0,-6.395758986E-1,6.876815557E-1,-9.004153609E-1
2.573856752E0,-6.968445182E-1,6.644686460E-1,-8.776606321E-1
2.576093812E0,-7.538077235E-1,6.510296464E-1,-8.575021029E-1
2.578327578E0,-7.959573865E-1,6.433938146E-1,-8.358163834E-1
2.580555971E0,-8.342891932E-1,6.429356933E-1,-8.177958727E-1
2.582801698E0,-8.712465763E-1,6.520986557E-1,-7.973318696E-1
2.585031617E0,-8.994990587E-1,6.635523438E-1,-7.754934430E-1
2.587280457E0,-9.263771176E-1,6.737843752E-1,-7.548767328E-1
2.589514283E0,-9.546296597E-1,6.901249886E-1,-7.330383062E-1
2.591753663E0,-9.802860022E-1,7.052439451E-1,-7.073819637E-1
2.593988160E0,-1.008538485E0,7.179193497E-1,-6.818783283E-1
2.596224977E0,-1.035722017E0,7.208209634E-1,-6.528622508E-1
2.598461427E0,-1.057407737E0,6.994407177E-1,-6.236934066E-1
2.600698304E0,-1.077566266E0,6.852380633E-1,-5.896376967E-1
2.602936097E0,-1.097419381E0,6.892086864E-1,-5.531384945E-1
2.605171937E0,-1.123228431E0,7.043276429E-1,-5.115996599E-1
2.607408571E0,-1.156367898E0,7.267768979E-1,-4.641048610E-1
2.609645143E0,-1.191950798E0,7.506006956E-1,-4.092797041E-1
2.611882387E0,-1.232573390E0,7.707592249E-1,-3.495676219E-1
2.614116762E0,-1.278235555E0,7.874053121E-1,-2.838996351E-1
2.616343995E0,-1.327868342E0,7.956519723E-1,-2.119702399E-1
2.618581544E0,-1.382540822E0,7.954992652E-1,-1.391245574E-1
2.620830140E0,-1.444543600E0,7.979426980E-1,-6.734789163E-2
2.623068238E0,-1.509142637E0,7.906123400E-1,1.832595794E-3
2.625305666E0,-1.577559471E0,7.725918293E-1,4.886921868E-2
2.627539613E0,-1.649794340E0,7.435756922E-1,8.475755155E-2
2.629776246E0,-1.723403573E0,7.134906054E-1,1.244637966E-1
2.632011110E0,-1.801747084E0,6.870706677E-1,1.664607823E-1
2.634241517E0,-1.872607350E0,6.666067243E-1,2.025018334E-1
2.636488160E0,-1.944689512E0,6.461427212E-1,2.409863323E-1
2.638724428E0,-2.009288549E0,6.256787181E-1,2.794708610E-1
2.640962403E0,-2.077705383E0,6.062837839E-1,3.155119121E-1
2.643193605E0,-2.144747972E0,5.870414972E-1,3.478877544E-1
2.645418763E0,-2.204459906E0,5.662720799E-1,3.791945875E-1
2.647658693E0,-2.263103008E0,5.395467281E-1,4.005748928E-1
2.649907106E0,-2.317928076E0,5.138903856E-1,4.158465266E-1
2.652147096E0,-2.377793074E0,4.775438905E-1,4.237877727E-1
2.654384157E0,-2.436588764E0,4.300491214E-1,4.256203473E-1
2.656618776E0,-2.486832380E0,3.788891733E-1,4.236350358E-1
2.658854310E0,-2.548224449E0,3.291036487E-1,4.156937897E-1
2.661091127E0,-2.607020140E0,2.768746614E-1,4.063780904E-1
2.663327699E0,-2.665968657E0,2.173153162E-1,3.946189582E-1
2.665564760E0,-2.724917173E0,1.614211351E-1,3.791945875E-1
2.667801332E0,-2.783865690E0,1.043052375E-1,3.625485301E-1
2.670038148E0,-2.839301586E0,3.634648025E-2,3.434589803E-1
2.672275209E0,-2.895959377E0,-3.543018550E-2,3.207042515E-1
2.674512819E0,-2.944065094E0,-1.108720452E-1,2.955060601E-1
2.676748658E0,-2.985909224E0,-1.780672222E-1,2.727513313E-1
2.678985414E0,-3.022561312E0,-2.331978083E-1,2.466368377E-1
2.681219728E0,-3.052646399E0,-2.677116990E-1,2.266310006E-1
2.683450685E0,-3.072804928E0,-2.929098904E-1,2.092213482E-1
2.685695314E0,-3.091283560E0,-2.997821271E-1,1.966986060E-1
2.687932252E0,-3.099835634E0,-2.984076738E-1,1.930334121E-1
2.690171571E0,-3.096017838E0,-2.875648141E-1,1.956295967E-1
2.692407106E0,-3.091894388E0,-2.706133127E-1,2.029599845E-1
2.694642701E0,-3.083036900E0,-2.513710558E-1,2.165517360E-1
2.696879518E0,-3.075401068E0,-2.357939780E-1,2.362521291E-1
2.699116273E0,-3.070361376E0,-2.176207453E-1,2.583959997E-1
2.701353151E0,-3.063947439E0,-1.971567571E-1,2.843577862E-1
2.703589967E0,-3.048981190E0,-1.768454909E-1,3.077233732E-1
2.705827027E0,-3.024241209E0,-1.676825136E-1,3.275764883E-1
2.708065065E0,-2.984840393E0,-1.611157060E-1,3.439171314E-1
2.710297792E0,-2.939178228E0,-1.534798890E-1,3.637702465E-1
2.712522706E0,-2.887560129E0,-1.435533315E-1,3.863722682E-1
2.714773134E0,-2.829375029E0,-1.192714423E-1,4.114177525E-1
2.717010072E0,-2.769815683E0,-9.010262042E-2,4.340197444E-1
2.719250917E0,-2.708729267E0,-4.886921868E-2,4.567744732E-1
2.721484010E0,-2.643977404E0,9.162978968E-4,4.819726646E-1
2.723720826E0,-2.571589947E0,5.283984542E-2,5.085453391E-1
2.725957887E0,-2.495384455E0,1.192714423E-1,5.363397002E-1
2.728195680E0,-2.413986683E0,1.965458989E-1,5.667302608E-1
2.730431215E0,-2.323884010E0,2.797762752E-1,5.960517526E-1
2.732667848E0,-2.225229263E0,3.579670191E-1,6.241515875E-1
2.734904603E0,-2.124283791E0,4.239404798E-1,6.472117305E-1
2.737141664E0,-2.018756866E0,4.764748812E-1,6.655376554E-1
2.739378297E0,-1.913382649E0,5.120577812E-1,6.763805151E-1
2.741614992E0,-1.809535623E0,5.378668308E-1,6.736316681E-1
2.743851869E0,-1.707062960E0,5.444336534E-1,6.598871946E-1
2.746089662E0,-1.607339144E0,5.387831330E-1,6.362161636E-1
2.748325197E0,-1.506393671E0,5.247332454E-1,5.991060734E-1
2.750561891E0,-1.411556840E0,5.131267905E-1,5.569564104E-1
2.752795655E0,-1.317636371E0,5.088507533E-1,5.002986193E-1
2.755023744E0,-1.231046200E0,5.096143484E-1,4.410447180E-1
2.757272340E0,-1.138041973E0,5.236642361E-1,3.782783151E-1
2.759509096E0,-1.048397422E0,5.461135507E-1,3.118467033E-1
2.761749147E0,-9.552405477E-1,5.673410892E-1,2.417499274E-1
2.763983705E0,-8.629998565E-1,5.958990455E-1,1.740965992E-1
2.766219301E0,-7.623597980E-1,6.243042946E-1,1.102611795E-1
2.768456117E0,-6.664539576E-1,6.553056836E-1,4.382958263E-2
2.770692689E0,-5.681046844E-1,6.837109327E-1,-2.244929783E-2
2.772929811E0,-4.650211632E-1,7.107416987E-1,-8.384125680E-2
2.775166627E0,-3.656028509E-1,7.342600226E-1,-1.429424733E-1
2.777403627E0,-2.710714638E-1,7.615962625E-1,-1.970040351E-1
2.779641297E0,-1.800525337E-1,7.962628603E-1,-2.524400651E-1
2.781878236E0,-9.407325089E-2,8.345946670E-1,-3.028364480E-1
2.784113588E0,-1.175915636E-2,8.694139719E-1,-3.509420753E-1
2.786350221E0,6.688974798E-2,9.054549932E-1,-3.979786932E-1
2.788586916E0,1.343903542E-1,9.442449808E-1,-4.399756789E-1
2.790824098E0,1.957823038E-1,9.830349088E-1,-4.784601927E-1
2.793057862E0,2.521346211E-1,1.017243385E0,-5.108360648E-1
2.795285463E0,3.046690524E-1,1.047786593E0,-5.396994352E-1
2.797534486E0,3.484986126E-1,1.076039076E0,-5.697845817E-1
2.799772035E0,3.862195611E-1,1.103222609E0,-5.975789428E-1
2.802010988E0,4.213443100E-1,1.126740932E0,-6.215553880E-1
2.804245057E0,4.514294267E-1,1.149190187E0,-6.481280327E-1
2.806481508E0,4.729624093E-1,1.167058110E0,-6.663012505E-1
2.808718080E0,4.880813360E-1,1.177595496E0,-6.832527518E-1
2.810954835E0,5.032002330E-1,1.189507365E0,-6.977608204E-1
2.813188783E0,5.083925724E-1,1.201571941E0,-7.110471725E-1
2.815417420E0,5.109887719E-1,1.208749652E0,-7.183775306E-1
2.817666627E0,5.086980462E-1,1.214858294E0,-7.220427394E-1
2.819902162E0,5.039638281E-1,1.222188592E0,-7.232644558E-1
2.822141603E0,4.929682612E-1,1.224937558E0,-7.221954465E-1
2.824375246E0,4.780020416E-1,1.221577764E0,-7.186829448E-1
2.826612367E0,4.570799172E-1,1.222035885E0,-7.102835774E-1
2.828849183E0,4.334088862E-1,1.210276723E0,-6.982190013E-1
2.831084718E0,4.109596014E-1,1.199739337E0,-6.875288486E-1
2.833318666E0,3.811798990E-1,1.193172574E0,-6.742424965E-1
2.835560365E0,3.514002264E-1,1.184009552E0,-6.635523438E-1
2.837796266E0,3.190243840E-1,1.174846530E0,-6.528622508E-1
2.840034181E0,2.793181241E-1,1.159880400E0,-6.421720982E-1
2.842269899E0,2.396118939E-1,1.144914150E0,-6.365215778E-1
2.844506654E0,2.011273801E-1,1.132238746E0,-6.319400668E-1
2.846743226E0,1.577559561E-1,1.116203547E0,-6.299547553E-1
2.848980226E0,1.140790880E-1,1.093906879E0,-6.304129362E-1
2.851218080E0,6.688974798E-2,1.070541382E0,-6.310238242E-1
2.853454713E0,1.954768784E-2,1.046106696E0,-6.302602291E-1
2.855690492E0,-2.641992271E-2,1.019075990E0,-6.343835592E-1
2.857926820E0,-6.994406879E-2,9.955576062E-1,-6.409503818E-1
2.860161623E0,-1.185078546E-1,9.650143981E-1,-6.476698518E-1
2.862392579E0,-1.646281779E-1,9.379835725E-1,-6.505714655E-1
2.864637330E0,-2.046398520E-1,9.085093141E-1,-6.583600044E-1
2.866874330E0,-2.444988191E-1,8.837692738E-1,-6.649268270E-1
2.869113221E0,-2.842050493E-1,8.626944423E-1,-6.702718735E-1
2.871349000E0,-3.153591752E-1,8.451320529E-1,-6.791294217E-1
2.873584535E0,-3.452915847E-1,8.249735236E-1,-6.856962442E-1
2.875821412E0,-3.674354553E-1,8.194757104E-1,-6.919575930E-1
2.878057924E0,-3.883575797E-1,8.161159754E-1,-6.945537925E-1
2.880294984E0,-3.970624208E-1,8.127561808E-1,-6.971499324E-1
2.882531617E0,-4.080579877E-1,8.202393055E-1,-7.008151412E-1
2.884768617E0,-4.075998366E-1,8.347473741E-1,-7.057020664E-1
2.887005433E0,-4.010330439E-1,8.600982428E-1,-7.104362845E-1
2.889242982E0,-3.866777122E-1,8.950703144E-1,-7.199047208E-1
2.891478517E0,-3.536909819E-1,9.393580556E-1,-7.367035151E-1
2.893715394E0,-3.217732608E-1,9.871582389E-1,-7.484626174E-1
2.895951967E0,-2.901609838E-1,1.024268270E0,-7.565566301E-1
2.898190370E0,-2.674062550E-1,1.052826285E0,-7.660250068E-1
2.900430971E0,-2.470949888E-1,1.076802731E0,-7.829765081E-1
2.902662477E0,-2.281581759E-1,1.094670534E0,-7.997753024E-1
2.904899781E0,-2.105957866E-1,1.102764487E0,-8.167268038E-1
2.907135987E0,-1.992947906E-1,1.104902506E0,-8.436049223E-1
2.909372926E0,-1.884519309E-1,1.081689596E0,-8.717046976E-1
2.911609620E0,-1.779145002E-1,1.046259403E0,-9.060658813E-1
2.913845949E0,-1.725694388E-1,9.940304756E-1,-9.367618561E-1
2.916083131E0,-1.606575549E-1,9.075930119E-1,-9.651671052E-1
2.918320131E0,-1.469130963E-1,7.909177542E-1,-9.851729274E-1
2.920557008E0,-1.356120855E-1,6.728680730E-1,-9.952521920E-1
2.922791872E0,-1.203404516E-1,5.743660331E-1,-9.943358898E-1
2.925019594E0,-1.085812971E-1,4.964807332E-1,-9.798278809E-1
2.927264283E0,-9.987647086E-2,4.428772926E-1,-9.579893947E-1
2.929492006E0,-9.468411654E-2,4.088215530E-1,-9.286679029E-1
2.931743226E0,-9.147707373E-2,4.002694488E-1,-8.871290684E-1
2.933977357E0,-9.162978828E-2,4.086688459E-1,-8.393288255E-1
2.936217104E0,-9.651670605E-2,4.282165468E-1,-7.817547917E-1
2.938451051E0,-1.061378345E-1,4.624249935E-1,-7.180721164E-1
2.940688111E0,-1.204931661E-1,5.027421117E-1,-6.556110978E-1
2.942925660E0,-1.398881376E-1,5.430592299E-1,-5.896376967E-1
2.945161439E0,-1.690569520E-1,5.787948370E-1,-5.236642361E-1
2.947397951E0,-2.061670274E-1,5.965099335E-1,-4.627304375E-1
2.949634340E0,-2.472477108E-1,5.888741016E-1,-4.080579877E-1
2.951871644E0,-2.936734557E-1,5.655084848E-1,-3.558290005E-1
2.954108461E0,-3.437644243E-1,5.396994352E-1,-3.098613918E-1
2.956345094E0,-3.975205719E-1,5.128213763E-1,-2.677116990E-1
2.958582154E0,-4.610505402E-1,4.886921942E-1,-2.315179259E-1
2.960819887E0,-5.342016816E-1,4.718934000E-1,-2.041817009E-1
2.963055543E0,-6.047565937E-1,4.610505402E-1,-1.791362315E-1
2.965289369E0,-6.827946305E-1,4.456261992E-1,-1.601994038E-1
2.967516847E0,-7.632761002E-1,4.277583957E-1,-1.487456858E-1
2.969765687E0,-8.484918475E-1,4.124867618E-1,-1.434006095E-1
2.972002504E0,-9.303477407E-1,3.897320330E-1,-1.392772794E-1
2.974242372E0,-1.016937971E0,3.695734739E-1,-1.414152980E-1
2.976476625E0,-1.100779176E0,3.604104817E-1,-1.507309973E-1
2.978713746E0,-1.179428101E0,3.594942093E-1,-1.586722434E-1
2.980949769E0,-1.254259109E0,3.706424832E-1,-1.702786833E-1
2.983186281E0,-1.321454287E0,3.950771093E-1,-1.841758788E-1
2.985422975E0,-1.379639149E0,4.314235747E-1,-2.054034323E-1
2.987659974E0,-1.431409955E0,4.760167301E-1,-2.277000248E-1
2.989896852E0,-1.469589114E0,5.314527750E-1,-2.522873580E-1
2.992133912E0,-1.500132322E0,5.902485251E-1,-2.828305960E-1
2.994370424E0,-1.515862107E0,6.572909951E-1,-3.207042515E-1
2.996603090E0,-1.528843045E0,7.304421067E-1,-3.657555580E-1
2.998843812E0,-1.528995752E0,8.226827979E-1,-4.143193662E-1
3.001080385E0,-1.523650646E0,9.500481486E-1,-4.737260044E-1
3.003315614E0,-1.532355428E0,1.094517827E0,-5.539020896E-1
3.005540040E0,-1.542434692E0,1.231962442E0,-6.501133442E-1
3.007777039E0,-1.549154282E0,1.301295638E0,-7.392996550E-1
3.010016542E0,-1.544420004E0,1.316872716E0,-8.284859657E-1
3.012268068E0,-1.532813668E0,1.315498352E0,-9.140071273E-1
3.014505007E0,-1.516320229E0,1.311527729E0,-1.003193498E0
3.016740724E0,-1.497077942E0,1.312443972E0,-1.099710107E0
3.018974855E0,-1.464091301E0,1.323897719E0,-1.208291411E0
3.021211488E0,-1.407280803E0,1.348332286E0,-1.352150202E0
3.023448365E0,-1.343598127E0,1.322828650E0,-1.557248235E0
3.025685121E0,-1.277471900E0,1.234253287E0,-1.756543040E0
3.027921937E0,-1.193325281E0,1.135445833E0,-1.927585244E0
3.030159059E0,-1.100168347E0,1.071763039E0,-2.061517477E0
3.032396547E0,-1.012203693E0,1.009454846E0,-2.151620150E0
3.034632081E0,-9.321803451E-1,9.228646755E-1,-2.217440844E0
3.036868715E0,-8.701775670E-1,8.052731156E-1,-2.269975185E0
3.039105531E0,-8.232936263E-1,6.768386960E-1,-2.305558205E0
3.041342653E0,-7.924449444E-1,5.574145317E-1,-2.317928076E0
3.043579469E0,-7.611380816E-1,4.633412957E-1,-2.313194036E0
3.045815980E0,-7.182248235E-1,4.030183554E-1,-2.289828300E0
3.048053102E0,-6.772968173E-1,3.694207668E-1,-2.250427485E0
3.050290834E0,-6.386595964E-1,3.529273868E-1,-2.192700863E0
3.052526490E0,-5.998696685E-1,3.497203588E-1,-2.115273714E0
3.054763307E0,-5.593998432E-1,3.743076921E-1,-2.021811247E0
3.056999818E0,-5.183191895E-1,4.292855561E-1,-1.913535357E0
3.059236818E0,-4.720461071E-1,5.085453391E-1,-1.797929168E0
3.061470582E0,-4.253149331E-1,6.070473194E-1,-1.674687028E0
3.063700013E0,-3.685044646E-1,7.176139355E-1,-1.552666783E0
3.065948304E0,-3.066543639E-1,8.304712772E-1,-1.432937145E0
3.068184938E0,-2.426662147E-1,9.347765446E-1,-1.318247199E0
3.070423097E0,-1.710422635E-1,1.036485553E0,-1.209513187E0
3.072657045E0,-9.224065393E-2,1.132086039E0,-1.108109593E0
3.074893861E0,-9.926560335E-3,1.218981624E0,-1.022588372E0
3.077130922E0,7.620543987E-2,1.299768567E0,-9.468411207E-1
3.079367494E0,1.646281779E-1,1.374599576E0,-8.834638596E-1
3.081604310E0,2.521346211E-1,1.454164743E0,-8.321511745E-1
3.083841432E0,3.358231783E-1,1.524108768E0,-7.944302559E-1
3.086079225E0,4.256203473E-1,1.592678428E0,-7.713701129E-1
3.088314821E0,5.152648091E-1,1.646739960E0,-7.631233931E-1
3.090551698E0,6.000223756E-1,1.693623900E0,-7.683157325E-1
3.092785402E0,6.869179606E-1,1.721112847E0,-7.869471312E-1
3.095013307E0,7.614435554E-1,1.741576791E0,-8.193230033E-1
3.097261537E0,8.407033086E-1,1.750892520E0,-8.541423082E-1
3.099496522E0,9.097310901E-1,1.744631171E0,-8.950703144E-1
3.101738405E0,9.723447561E-1,1.725236177E0,-9.350819588E-1
3.103973207E0,1.029918790E0,1.696220040E0,-9.787588120E-1
3.106209535E0,1.077260852E0,1.647961736E0,-1.020144939E0
3.108445680E0,1.119410515E0,1.585348010E0,-1.062905550E0
3.110682130E0,1.155146122E0,1.510517001E0,-1.098335743E0
3.112919008E0,1.184314966E0,1.428661108E0,-1.125366449E0
3.115156129E0,1.207527876E0,1.350623012E0,-1.145066857E0
3.117392946E0,1.225548387E0,1.265254617E0,-1.156215191E0
3.119630067E0,1.238682032E0,1.182482362E0,-1.156520605E0
3.121867494E0,1.249372125E0,1.108262300E0,-1.149343014E0
3.124103151E0,1.252731919E0,1.031751394E0,-1.132544160E0
3.126339234E0,1.247234106E0,9.492846131E-1,-1.116967082E0
3.128572755E0,1.242194533E0,8.923214078E-1,-1.090241790E0
3.130813356E0,1.236085773E0,8.475755453E-1,-1.052673578E0
3.133050294E0,1.226464748E0,8.089383245E-1,-1.010065675E0
3.135288088E0,1.214400053E0,7.812966704E-1,-9.650143981E-1
3.137525026E0,1.201419234E0,7.620543838E-1,-9.137017131E-1
3.139761476E0,1.187369347E0,7.562511563E-1,-8.625417352E-1
3.141997194E0,1.172097683E0,7.504479289E-1,-8.100073338E-1
3.144234010E0,1.154535294E0,7.496843934E-1,-7.612907887E-1
3.146470766E0,1.136972904E0,7.451028824E-1,-7.173085213E-1
3.148707643E0,1.114523649E0,7.431175709E-1,-6.795876026E-1
3.150944398E0,1.092074394E0,7.447974682E-1,-6.491970420E-1
3.153181215E0,1.065959811E0,7.415903807E-1,-6.249151230E-1
3.155418336E0,1.041219831E0,7.383833528E-1,-6.081163287E-1
3.157655824E0,1.017701507E0,7.328855991E-1,-6.033821702E-1
3.159891420E0,9.906707406E-1,7.321220040E-1,-6.073527932E-1
3.162128236E0,9.622654915E-1,7.266241908E-1,-6.174320579E-1
3.164361330E0,9.288206100E-1,7.127270103E-1,-6.323982477E-1
3.166587953E0,8.901833892E-1,6.855435371E-1,-6.450737119E-1
3.168838502E0,8.442157507E-1,6.633996367E-1,-6.528622508E-1
3.171075502E0,7.982481718E-1,6.400340796E-1,-6.582072973E-1
3.173315797E0,7.447974682E-1,6.168211699E-1,-6.600399017E-1
3.175548280E0,6.913467646E-1,5.899431109E-1,-6.582072973E-1
3.177779054E0,6.304129362E-1,5.619960427E-1,-6.551529765E-1
3.180022340E0,5.732970238E-1,5.352706909E-1,-6.508769393E-1
3.182259157E0,5.184718966E-1,5.096143484E-1,-6.440047026E-1
3.184497804E0,4.625777006E-1,4.876231849E-1,-6.409503818E-1
3.186732850E0,4.079052806E-1,4.619668424E-1,-6.366742849E-1
3.188969789E0,3.591887653E-1,4.277583957E-1,-6.273586154E-1
3.191206605E0,3.152064681E-1,3.837760985E-1,-6.230825782E-1
3.193441285E0,2.721404731E-1,3.287982047E-1,-6.224716902E-1
3.195668214E0,2.313652188E-1,2.591595948E-1,-6.181956530E-1
3.197916627E0,1.988366395E-1,1.797471046E-1,-6.151412725E-1
3.200153383E0,1.699732542E-1,9.040805697E-2,-6.133087277E-1
3.202393129E0,1.507309973E-1,-6.261368748E-3,-6.088799238E-1
3.204627137E0,1.412625909E-1,-1.104138941E-1,-6.007859707E-1
3.206864320E0,1.353066564E-1,-2.159408629E-1,-5.878050923E-1
3.209102052E0,1.404990107E-1,-3.155119121E-1,-5.723807216E-1
3.211337953E0,1.482875347E-1,-4.127921760E-1,-5.568036437E-1
3.213567140E0,1.637118906E-1,-4.992296100E-1,-5.349652171E-1
3.215796022E0,1.876883507E-1,-5.774203539E-1,-5.117523670E-1
3.218033021E0,2.170098722E-1,-6.470590234E-1,-4.885394871E-1
3.220271913E0,2.510656118E-1,-7.133378983E-1,-4.616613984E-1
3.222511781E0,2.820670307E-1,-7.612907887E-1,-4.370740950E-1
3.224746461E0,3.167336285E-1,-8.031350970E-1,-4.124867618E-1
3.226984620E0,3.515529633E-1,-8.402451277E-1,-3.903428912E-1
3.229220522E0,3.840815127E-1,-8.651378751E-1,-3.717114925E-1
3.231456910E0,4.167627990E-1,-8.865181804E-1,-3.556762934E-1
3.233693117E0,4.485278130E-1,-8.920159936E-1,-3.431535661E-1
3.235930055E0,4.804455042E-1,-8.962920308E-1,-3.355177343E-1
3.238167299E0,5.125159621E-1,-8.944594264E-1,-3.304781020E-1
3.240403932E0,5.419901609E-1,-8.949176073E-1,-3.301726580E-1
3.242640687E0,5.716171265E-1,-8.918632865E-1,-3.347541690E-1
3.244877504E0,6.073527932E-1,-8.926268220E-1,-3.430008292E-1
3.247115236E0,6.407976151E-1,-8.920159936E-1,-3.575088978E-1
3.249350587E0,6.754642725E-1,-8.878926635E-1,-3.779728711E-1
3.251590517E0,7.102835774E-1,-8.764389157E-1,-3.972151279E-1
3.253839112E0,7.452555895E-1,-8.600982428E-1,-4.213443100E-1
3.256075807E0,7.765624523E-1,-8.388707042E-1,-4.430300295E-1
3.258312624E0,8.116871715E-1,-8.177958727E-1,-4.633412957E-1
3.260546266E0,8.443684578E-1,-7.929030657E-1,-4.850270152E-1
3.262780092E0,8.819366693E-1,-7.632761002E-1,-5.065600276E-1
3.265009096E0,9.173668623E-1,-7.263187766E-1,-5.294674635E-1
3.267256593E0,9.566149712E-1,-6.858489513E-1,-5.546656251E-1
3.269493348E0,9.944885969E-1,-6.466008425E-1,-5.859724879E-1
3.271732972E0,1.033889413E0,-6.012440920E-1,-6.258314252E-1
3.273966859E0,1.066723466E0,-5.714644194E-1,-6.646214128E-1
3.276200075E0,1.099557400E0,-5.453499556E-1,-7.020368576E-1
3.278426088E0,1.126130104E0,-5.241223574E-1,-7.360926270E-1
3.280678590E0,1.153771758E0,-5.015203953E-1,-7.638869882E-1
3.282915162E0,1.181566119E0,-4.778493345E-1,-7.904596329E-1
3.285154603E0,1.210429430E0,-4.541783035E-1,-8.133670688E-1
3.287387269E0,1.234558702E0,-4.291328490E-1,-8.301658630E-1
3.289624086E0,1.258229733E0,-4.137084782E-1,-8.434522152E-1
3.291861146E0,1.280831695E0,-4.008803070E-1,-8.565858006E-1
3.294098024E0,1.300837517E0,-3.891211748E-1,-8.613200188E-1
3.296334779E0,1.324203134E0,-3.846924007E-1,-8.622363210E-1
3.298571656E0,1.349095941E0,-3.767511547E-1,-8.596401215E-1
3.300809388E0,1.376432061E0,-3.602577746E-1,-8.520042896E-1
3.303044984E0,1.401477575E0,-3.352122903E-1,-8.417723179E-1
3.305281862E0,1.419039965E0,-3.126102984E-1,-8.281805515E-1
3.307518373E0,1.434158921E0,-2.910772860E-1,-8.083274364E-1
3.309755433E0,1.444390893E0,-2.669481039E-1,-7.898487449E-1
3.311989137E0,1.448361516E0,-2.463314086E-1,-7.725918293E-1
3.314215272E0,1.443627238E0,-2.353358418E-1,-7.615962625E-1
3.316457582E0,1.424690485E0,-2.532036304E-1,-7.629706860E-1
3.318703492E0,1.390634775E0,-2.999348342E-1,-7.831292152E-1
3.320942140E0,1.354288220E0,-3.379611969E-1,-8.019133210E-1
3.323177919E0,1.317025423E0,-3.579670191E-1,-8.132143617E-1
3.325409486E0,1.273501277E0,-3.837760985E-1,-8.260425329E-1
3.327637758E0,1.224784851E0,-4.253149331E-1,-8.339837790E-1
3.329886354E0,1.164614558E0,-4.810563922E-1,-8.494081497E-1
3.332123109E0,1.104444385E0,-5.442809463E-1,-8.697193861E-1
3.334362916E0,1.035416603E0,-6.145304441E-1,-8.889616728E-1
3.336597719E0,9.651671052E-1,-6.823364496E-1,-9.069821835E-1
3.338833314E0,8.924741149E-1,-7.524332404E-1,-9.237809777E-1
3.341070192E0,8.248208165E-1,-8.142833710E-1,-9.330966473E-1
3.343306581E0,7.560984492E-1,-8.710938692E-1,-9.450085163E-1
3.345543275E0,6.875288486E-1,-9.111055136E-1,-9.494373202E-1
3.347780336E0,6.229298115E-1,-9.388998747E-1,-9.500481486E-1
3.350017457E0,5.673410892E-1,-9.488264322E-1,-9.529497623E-1
3.352255555E0,5.119050741E-1,-9.549350739E-1,-9.572258592E-1
3.354491762E0,4.639521539E-1,-9.491318464E-1,-9.636399150E-1
3.356727418E0,4.211915731E-1,-9.361509681E-1,-9.676105380E-1
3.358964174E0,3.834706545E-1,-9.172141552E-1,-9.728028774E-1
3.361200990E0,3.494149148E-1,-8.984300494E-1,-9.766207933E-1
3.363437867E0,3.167336285E-1,-8.735373020E-1,-9.805914164E-1
3.365674623E0,2.926044464E-1,-8.463537693E-1,-9.818131924E-1
3.367911439E0,2.748893499E-1,-8.119926453E-1,-9.830349088E-1
3.370148561E0,2.594650090E-1,-7.800748944E-1,-9.818131924E-1
3.372386049E0,2.551889420E-1,-7.472409010E-1,-9.781479836E-1
3.374621705E0,2.484694421E-1,-7.156286240E-1,-9.743300676E-1
3.376858705E0,2.515237629E-1,-6.853908300E-1,-9.680687189E-1
3.379095094E0,2.580905557E-1,-6.635523438E-1,-9.618073106E-1
3.381332338E0,2.645046413E-1,-6.455318332E-1,-9.555459619E-1
3.383568666E0,2.780964077E-1,-6.446155310E-1,-9.468411207E-1
3.385805787E0,2.900082767E-1,-6.569855809E-1,-9.382890463E-1
3.388042787E0,3.068070710E-1,-6.742424965E-1,-9.295842052E-1
3.390280397E0,3.271183372E-1,-7.038694620E-1,-9.198103547E-1
3.392515870E0,3.471241891E-1,-7.441865802E-1,-9.075930119E-1
3.394752504E0,3.732386529E-1,-7.896960378E-1,-8.940013051E-1
3.396986268E0,4.004221559E-1,-8.387179971E-1,-8.805622458E-1
3.399214174E0,4.302018583E-1,-8.866708875E-1,-8.645270467E-1
3.401463014E0,4.610505402E-1,-9.358455539E-1,-8.486445546E-1
3.403699769E0,4.944954216E-1,-9.837985039E-1,-8.350527883E-1
3.405939882E0,5.328271985E-1,-1.025795460E0,-8.177958727E-1
3.408174440E0,5.726861954E-1,-1.061836481E0,-8.042041063E-1
3.410410158E0,6.078109145E-1,-1.085507512E0,-7.880161405E-1
3.412646547E0,6.429356933E-1,-1.106887817E0,-7.756461501E-1
3.414883363E0,6.783658266E-1,-1.112385631E0,-7.582364678E-1
3.417120424E0,7.141014934E-1,-1.110705733E0,-7.467827797E-1
3.419357362E0,7.463245988E-1,-1.093143344E0,-7.342600226E-1
3.421594361E0,7.725918293E-1,-1.070541382E0,-7.217372656E-1
3.423832154E0,7.990117669E-1,-1.037096500E0,-7.090618610E-1
3.426067812E0,8.231409192E-1,-9.999864101E-1,-6.989825368E-1
3.428300783E0,8.423831463E-1,-9.578366876E-1,-6.876815557E-1
3.430540590E0,8.591819406E-1,-9.156870246E-1,-6.762278080E-1
3.432774598E0,8.710938692E-1,-8.686503768E-1,-6.673702598E-1
3.435003358E0,8.819366693E-1,-8.190175891E-1,-6.585127115E-1
3.437251344E0,8.889616728E-1,-7.754934430E-1,-6.485861540E-1
3.439488099E0,8.909469843E-1,-7.330383062E-1,-6.421720982E-1
3.441728273E0,8.915578127E-1,-6.979135275E-1,-6.371324658E-1
3.443962953E0,8.872817755E-1,-6.675229669E-1,-6.346889734E-1
3.446198304E0,8.816312551E-1,-6.443101168E-1,-6.334672570E-1
3.448435121E0,8.707883954E-1,-6.319400668E-1,-6.334672570E-1
3.450671632E0,8.625417352E-1,-6.160575747E-1,-6.322455406E-1
3.452908815E0,8.516988754E-1,-6.024658680E-1,-6.346889734E-1
3.455145631E0,8.431467414E-1,-5.974262357E-1,-6.334672570E-1
3.457382387E0,8.310821652E-1,-5.862779021E-1,-6.323982477E-1
3.459619203E0,8.162686825E-1,-5.871942043E-1,-6.313292384E-1
3.461856752E0,8.077165484E-1,-5.833762884E-1,-6.276640296E-1
3.464092531E0,7.988590002E-1,-5.917757154E-1,-6.217080951E-1
3.466329164E0,7.901542187E-1,-5.951354504E-1,-6.155994534E-1
3.468565797E0,7.837401032E-1,-6.035348773E-1,-6.035348773E-1
3.470803041E0,7.785477638E-1,-6.107125282E-1,-5.925393105E-1
3.473039674E0,7.733554244E-1,-6.191119552E-1,-5.839871764E-1
3.475276429E0,7.756461501E-1,-6.276640296E-1,-5.729916096E-1
3.477513246E0,7.753407359E-1,-6.374378800E-1,-5.571091175E-1
3.479751100E0,7.762570381E-1,-6.470590234E-1,-5.450445414E-1
3.481986879E0,7.808384895E-1,-6.629415154E-1,-5.291619897E-1
3.484223573E0,7.877107263E-1,-6.824892163E-1,-5.145012736E-1
3.486460268E0,7.944302559E-1,-7.069237828E-1,-4.998404980E-1
3.488697084E0,7.999280095E-1,-7.338019013E-1,-4.851797223E-1
3.490933961E0,8.092437387E-1,-7.570147514E-1,-4.717406929E-1
3.493167970E0,8.210029006E-1,-7.826710939E-1,-4.583016634E-1
3.495396791E0,8.339837790E-1,-8.072584271E-1,-4.497495294E-1
3.497645143E0,8.495608568E-1,-8.232936263E-1,-4.459316432E-1
3.499881166E0,8.665123582E-1,-8.382598162E-1,-4.471533597E-1
3.502120484E0,8.849910498E-1,-8.434522152E-1,-4.555527568E-1
3.504354371E0,9.083566070E-1,-8.475755453E-1,-4.700607955E-1
3.506588441E0,9.317222238E-1,-8.527678847E-1,-4.906775057E-1
3.508816591E0,9.613491893E-1,-8.594874144E-1,-5.149593949E-1
3.511065248E0,9.859365225E-1,-8.720101118E-1,-5.453499556E-1
3.513301820E0,1.016785145E0,-8.787296414E-1,-5.769622326E-1
3.515542299E0,1.045190454E0,-8.901833892E-1,-6.122397184E-1
3.517775087E0,1.075886369E0,-9.065240026E-1,-6.585127115E-1
3.520011842E0,1.100321054E0,-9.361509681E-1,-7.134906054E-1
3.522248598E0,1.119563222E0,-9.766207933E-1,-7.623597980E-1
3.524485475E0,1.136362076E0,-1.008538485E0,-8.040513992E-1
3.526722535E0,1.154688001E0,-1.033125877E0,-8.431467414E-1
3.528958986E0,1.169043422E0,-1.062447429E0,-8.688030839E-1
3.531195863E0,1.178511739E0,-1.086881995E0,-8.895725012E-1
3.533433412E0,1.186758399E0,-1.111316562E0,-9.043859839E-1
3.535669496E0,1.190118194E0,-1.128420830E0,-9.141598344E-1
3.537906129E0,1.198364854E0,-1.144303322E0,-9.141598344E-1
3.540142702E0,1.199281216E0,-1.162629247E0,-9.117164016E-1
3.542379640E0,1.202793717E0,-1.167516232E0,-9.019425511E-1
3.544616273E0,1.201419234E0,-1.171181440E0,-8.885034919E-1
3.546853151E0,1.199892044E0,-1.175915599E0,-8.750644922E-1
3.549090394E0,1.194699645E0,-1.183093309E0,-8.568912148E-1
3.551327760E0,1.183551431E0,-1.182940602E0,-8.373435140E-1
3.553563600E0,1.176068306E0,-1.181566119E0,-8.153523803E-1
3.555800355E0,1.168432474E0,-1.183856845E0,-7.896960378E-1
3.558036928E0,1.158505917E0,-1.181260705E0,-7.629706860E-1
3.560272401E0,1.144914150E0,-1.176068306E0,-7.409795523E-1
3.562505189E0,1.131322384E0,-1.172250390E0,-7.189884186E-1
3.564747682E0,1.116508961E0,-1.167058110E0,-6.995934248E-1
3.566985719E0,1.095434070E0,-1.161865711E0,-6.826419234E-1
3.569223390E0,1.079551578E0,-1.157895088E0,-6.692028642E-1
3.571457948E0,1.058629513E0,-1.151328325E0,-6.608034968E-1
3.573694582E0,1.036485553E0,-1.151022792E0,-6.536257863E-1
3.575930971E0,1.011745572E0,-1.149343014E0,-6.478226185E-1
3.578168031E0,9.896016717E-1,-1.145219564E0,-6.406449080E-1
3.580404725E0,9.676105380E-1,-1.141096234E0,-6.383541822E-1
3.582641420E0,9.442449808E-1,-1.136972904E0,-6.360634565E-1
3.584878541E0,9.198103547E-1,-1.126893640E0,-6.337726712E-1
3.587116273E0,8.978192210E-1,-1.115439892E0,-6.314819455E-1
3.589351930E0,8.758280277E-1,-1.106582403E0,-6.279694438E-1
3.591588746E0,8.564330935E-1,-1.095281363E0,-6.256787181E-1
3.593825258E0,8.382598162E-1,-1.077871680E0,-6.256787181E-1
3.596062318E0,8.153523803E-1,-1.058018565E0,-6.246097088E-1
3.598298890E0,7.997753024E-1,-1.032209516E0,-6.258314252E-1
3.600535707E0,7.880161405E-1,-1.005331516E0,-6.246097088E-1
3.602769837E0,7.751879692E-1,-9.735664725E-1,-6.246097088E-1
3.604998658E0,7.660250068E-1,-9.381362796E-1,-6.209445000E-1
3.607246217E0,7.579310536E-1,-9.065240026E-1,-6.110179424E-1
3.609482972E0,7.449501753E-1,-8.770498037E-1,-6.036875844E-1
3.611722231E0,7.367035151E-1,-8.562803864E-1,-5.975789428E-1
3.613956422E0,7.281513810E-1,-8.463537693E-1,-5.890268087E-1
3.616193422E0,7.185302377E-1,-8.378016949E-1,-5.853615999E-1
3.618430055E0,7.110471725E-1,-8.376489878E-1,-5.769622326E-1
3.620667115E0,7.034113407E-1,-8.471173644E-1,-5.696318150E-1
3.622904542E0,6.945537925E-1,-8.590292335E-1,-5.661193728E-1
3.625140199E0,6.831000447E-1,-8.733845949E-1,-5.589417219E-1
3.627376954E0,6.754642725E-1,-8.866708875E-1,-5.517640114E-1
3.629613344E0,6.603453159E-1,-8.972083330E-1,-5.458080769E-1
3.631850709E0,6.502660513E-1,-9.056077003E-1,-5.372560024E-1
3.634087465E0,6.365215778E-1,-9.138544202E-1,-5.276348591E-1
3.636324342E0,6.243042946E-1,-9.111055136E-1,-5.241223574E-1
3.638562074E0,6.108652353E-1,-9.048441648E-1,-5.180137157E-1
3.640798646E0,5.949827433E-1,-8.959866166E-1,-5.083925724E-1
3.643034547E0,5.830708742E-1,-8.750644922E-1,-5.047274232E-1
3.645269533E0,5.636758804E-1,-8.590292335E-1,-5.048801303E-1
3.647501527E0,5.493205786E-1,-8.381071091E-1,-5.134322643E-1
3.649744691E0,5.316054821E-1,-8.086328506E-1,-5.354233980E-1
3.651981508E0,5.141957998E-1,-7.706065178E-1,-5.673410892E-1
3.654219911E0,4.894557893E-1,-7.289149761E-1,-6.113234162E-1
3.656455445E0,4.610505402E-1,-6.858489513E-1,-6.603453159E-1
3.658692994E0,4.266893864E-1,-6.401867867E-1,-7.144069076E-1
3.660928834E0,3.900374472E-1,-5.910121202E-1,-7.756461501E-1
3.663162660E0,3.459024429E-1,-5.390886068E-1,-8.480336666E-1
3.665390138E0,3.023782969E-1,-4.715879560E-1,-9.263771176E-1
3.667638795E0,2.477058619E-1,-3.976732790E-1,-1.006095052E0
3.669875978E0,1.870774776E-1,-3.236058652E-1,-1.084591269E0
3.672115297E0,1.240056455E-1,-2.386955917E-1,-1.164461851E0
3.674347230E0,5.757404864E-2,-1.450804919E-1,-1.246623278E0
3.676577821E0,-1.145372353E-2,-5.390885845E-2,-1.331228137E0
3.678822572E0,-8.384125680E-2,5.070181563E-2,-1.418276429E0
3.681059449E0,-1.583668143E-1,1.722639948E-1,-1.501659513E0
3.683298524E0,-2.339613885E-1,2.974913716E-1,-1.588707805E0
3.685533326E0,-3.106249869E-1,4.312708676E-1,-1.675603390E0
3.687769899E0,-3.932445049E-1,5.833762884E-1,-1.762651682E0
3.690006654E0,-4.793764949E-1,7.356344461E-1,-1.851990700E0
3.692240786E0,-5.655084848E-1,8.852964640E-1,-1.943925977E0
3.694469545E0,-6.551529765E-1,1.049771905E0,-2.034639359E0
3.696716920E0,-7.411322594E-1,1.209207773E0,-2.130087137E0
3.698953981E0,-8.158105612E-1,1.259298682E0,-2.212553978E0
3.701193421E0,-8.584184051E-1,1.200655699E0,-2.281734467E0
3.703427308E0,-8.694139719E-1,1.120784998E0,-2.349387646E0
3.705663881E0,-8.495608568E-1,1.045037746E0,-2.427883863E0
3.707901185E0,-8.093964458E-1,9.909761548E-1,-2.513405085E0
3.710139039E0,-7.590000629E-1,9.547823668E-1,-2.599995136E0
3.712375551E0,-6.924157739E-1,9.352346659E-1,-2.688876152E0
3.714610963E0,-6.070473194E-1,9.251554012E-1,-2.768899441E0
3.716847963E0,-5.068654418E-1,9.231700897E-1,-2.842661381E0
3.719084535E0,-3.990477324E-1,9.332493544E-1,-2.906649590E0
3.721321657E0,-2.863430977E-1,9.529497623E-1,-2.960558414E0
3.723558168E0,-1.673770845E-1,9.796751142E-1,-2.999806404E0
3.725795228E0,-5.207626149E-2,1.005331516E0,-3.028211832E0
3.728032045E0,6.017022580E-2,1.010371089E0,-3.038138390E0
3.730269594E0,1.644754708E-1,9.963212013E-1,-3.028822660E0
3.732505128E0,2.535090744E-1,9.689850211E-1,-2.999959230E0
3.734742067E0,3.423899710E-1,9.344711304E-1,-2.956587791E0
3.736978822E0,4.237877727E-1,8.964447379E-1,-2.900999069E0
3.739215699E0,5.009095073E-1,8.416196108E-1,-2.835636377E0
3.741452516E0,5.655084848E-1,7.712173462E-1,-2.757140398E0
3.743689210E0,6.175847650E-1,6.403394938E-1,-2.655583858E0
3.745923647E0,6.568328738E-1,4.355469346E-1,-2.521498919E0
3.748153871E0,6.904304624E-1,2.104430795E-1,-2.362979412E0
3.750399476E0,7.345654368E-1,1.420261711E-2,-2.198198557E0
3.752636293E0,8.043568134E-1,-1.365283877E-1,-2.035555601E0
3.754875123E0,8.972083330E-1,-2.391537428E-1,-1.878563404E0
3.757109987E0,1.009302139E0,-3.080287874E-1,-1.737148046E0
3.759346742E0,1.140485406E0,-3.543018401E-1,-1.611309767E0
3.761583375E0,1.284344196E0,-3.849978149E-1,-1.501354098E0
3.763820375E0,1.433395267E0,-4.086688459E-1,-1.402241111E0
3.766057924E0,1.596038222E0,-4.372268021E-1,-1.320232511E0
3.768293763E0,1.759902716E0,-4.671591818E-1,-1.246775985E0
3.770530397E0,1.925905347E0,-5.068654418E-1,-1.170875907E0
3.772764405E0,2.073123932E0,-5.656611919E-1,-1.084285855E0
3.774990480E0,2.217593670E0,-6.351471543E-1,-9.938777685E-1
3.777230775E0,2.350762129E0,-7.166976333E-1,-9.062185884E-1
3.779477601E0,2.479960203E0,-8.126034737E-1,-8.162686825E-1
3.781718446E0,2.601369619E0,-9.230173826E-1,-7.287622094E-1
3.783954713E0,2.710256338E0,-1.047786593E0,-6.352998614E-1
3.786187867E0,2.814103365E0,-1.179733515E0,-5.395467281E-1
3.788424379E0,2.911689281E0,-1.311375022E0,-4.389066696E-1
3.790661195E0,3.003013611E0,-1.444238186E0,-3.370448947E-1
3.792898256E0,3.093268871E0,-1.572367191E0,-2.327396572E-1
3.795134889E0,3.174055815E0,-1.685529947E0,-1.322523206E-1
3.797371949E0,3.253773689E0,-1.789071560E0,-3.527746722E-2
3.799608949E0,3.325092316E0,-1.882686734E0,5.910121277E-2
3.801846315E0,3.390607595E0,-1.957975864E0,1.487456858E-1
3.804082094E0,3.445432663E0,-2.014939070E0,2.419026345E-1
3.806318910E0,3.494607449E0,-2.051132679E0,3.303253949E-1
3.808555482E0,3.534466267E0,-2.058005095E0,4.138612151E-1
3.810789430E0,3.563635111E0,-2.052507162E0,4.900666475E-1
3.813017640E0,3.589291573E0,-2.038457394E0,5.624541640E-1
3.815265931E0,3.608991861E0,-2.016924381E0,6.250678897E-1
3.817503114E0,3.612809658E0,-1.994016886E0,6.791294217E-1
3.819743654E0,3.610366344E0,-1.973400116E0,7.220427394E-1
3.821976137E0,3.592345715E0,-1.946216702E0,7.550294399E-1
3.824213014E0,3.559206247E0,-1.932319522E0,7.742717266E-1
3.826449647E0,3.501326799E0,-1.933541179E0,7.725918293E-1
3.828686342E0,3.426801205E0,-1.911550045E0,7.524332404E-1
3.830923829E0,3.321274281E0,-1.903303385E0,7.160868049E-1
3.833162599E0,3.191159964E0,-1.905594110E0,6.672175527E-1
3.835397157E0,3.050050259E0,-1.902845263E0,6.049093008E-1
3.837634889E0,2.906955004E0,-1.879479647E0,5.413793325E-1
3.839869814E0,2.775619030E0,-1.819767594E0,4.805982411E-1
3.842107240E0,2.658332825E0,-1.735010028E0,4.224133193E-1
3.844343568E0,2.550056934E0,-1.624901533E0,3.680463135E-1
3.846580873E0,2.448500633E0,-1.494176388E0,3.150537610E-1
3.848817445E0,2.355648994E0,-1.350470304E0,2.658790946E-1
3.851054567E0,2.260506868E0,-1.205389857E0,2.167044431E-1
3.853292298E0,2.167808056E0,-1.060309291E0,1.663080603E-1
3.855528871E0,2.071138620E0,-9.201157689E-1,1.183551401E-1
3.857761659E0,1.965917110E0,-7.845036983E-1,6.673702598E-2
3.859987978E0,1.857946634E0,-6.611089110E-1,2.214386500E-2
3.862230531E0,1.747380018E0,-5.484042764E-1,-2.474004216E-2
3.864475038E0,1.632842779E0,-4.418082833E-1,-6.811147183E-2
3.866714783E0,1.514334917E0,-3.448334336E-1,-1.067487001E-1
3.868950135E0,1.395827055E0,-2.551889420E-1,-1.391245574E-1
3.871185365E0,1.279609919E0,-1.643227488E-1,-1.655444801E-1
3.873422853E0,1.167210817E0,-6.994406879E-2,-1.832595766E-1
3.875658815E0,1.068403363E0,3.283400834E-2,-1.959350258E-1
3.877895631E0,9.783006907E-1,1.412625909E-1,-2.035708427E-1
3.880132143E0,8.956811428E-1,2.582432926E-1,-2.049452960E-1
3.882368959E0,8.228355050E-1,3.688098788E-1,-2.015855312E-1
3.884605836E0,7.597636580E-1,4.757113159E-1,-1.930334121E-1
3.886842836E0,7.024950385E-1,5.714644194E-1,-1.773036420E-1
3.889079713E0,6.524040699E-1,6.574437022E-1,-1.553124934E-1
3.891317262E0,6.105598211E-1,7.322747111E-1,-1.259909570E-1
3.893553041E0,5.797111392E-1,8.020660877E-1,-9.422596544E-2
3.895786744E0,5.700899959E-1,8.822421432E-1,-6.215553731E-2
3.898013734E0,5.673410892E-1,9.442449808E-1,-2.886338346E-2
3.900263246E0,5.766568184E-1,9.902125597E-1,6.872233935E-3
3.902500062E0,5.954409242E-1,1.016479731E0,4.749477282E-2
3.904740053E0,6.223189831E-1,1.020755768E0,9.437867999E-2
3.906973939E0,6.548475623E-1,1.003193498E0,1.421788931E-1
3.909211244E0,6.867652535E-1,9.552405477E-1,1.985312104E-1
3.911447084E0,7.254024744E-1,8.840747476E-1,2.609921694E-1
3.913683900E0,7.640396953E-1,8.019133210E-1,3.283400834E-1
3.915920534E0,8.109236360E-1,7.111998796E-1,4.054618180E-1
3.918157594E0,8.613200188E-1,6.155994534E-1,4.899139404E-1
3.920394349E0,9.115636349E-1,5.187773108E-1,5.780312419E-1
3.922631166E0,9.729556441E-1,4.216497242E-1,6.748533845E-1
3.924867189E0,1.038012743E0,3.233004212E-1,7.716755271E-1
3.927098390E0,1.104444385E0,2.296853364E-1,8.747590184E-1
3.929341188E0,1.171792269E0,1.252273768E-1,9.776898026E-1
3.931578004E0,1.239140153E0,2.199114859E-2,1.084285855E0
3.933816530E0,1.306335330E0,-8.368854225E-2,1.190881848E0
3.936051637E0,1.371239781E0,-1.857030392E-1,1.299921274E0
3.938288392E0,1.441336513E0,-2.768746614E-1,1.401630282E0
3.940525209E0,1.504255652E0,-3.607159257E-1,1.503492117E0
3.942760560E0,1.572214365E0,-4.324925840E-1,1.599245191E0
3.944992738E0,1.640631318E0,-4.908302128E-1,1.687667966E0
3.947235475E0,1.707979202E0,-5.395467281E-1,1.768760324E0
3.949472474E0,1.775632501E0,-5.844452977E-1,1.841300607E0
3.951710573E0,1.844507575E0,-6.223189831E-1,1.905441403E0
3.953945863E0,1.907426715E0,-6.574437022E-1,1.957212210E0
3.956182435E0,1.970651269E0,-6.829473376E-1,1.995544076E0
3.958419496E0,2.034028530E0,-7.061602473E-1,2.021811247E0
3.960656312E0,2.090228081E0,-7.302893996E-1,2.031890631E0
3.962890992E0,2.145053387E0,-7.544185519E-1,2.034792185E0
3.965117921E0,2.198809385E0,-7.808384895E-1,2.025323629E0
3.967366273E0,2.245082378E0,-8.084801435E-1,2.010815620E0
3.969602846E0,2.290133715E0,-8.397870064E-1,1.990351677E0
3.971842836E0,2.330298185E0,-8.707883954E-1,1.964848042E0
3.974076783E0,2.371837139E0,-8.984300494E-1,1.936900973E0
3.976313600E0,2.410779715E0,-9.282097220E-1,1.902845263E0
3.978550721E0,2.441170216E0,-9.604328871E-1,1.873676419E0
3.980788392E0,2.470339060E0,-9.912815690E-1,1.841911435E0
3.983020875E0,2.500882387E0,-1.013730884E0,1.812742591E0
3.985249147E0,2.528982162E0,-1.033736706E0,1.784795523E0
3.987497316E0,2.552042246E0,-1.052368045E0,1.759291887E0
3.989734315E0,2.575407982E0,-1.062447429E0,1.733635545E0
3.991971132E0,2.600147963E0,-1.067792416E0,1.709353685E0
3.994195802E0,2.619848251E0,-1.074206591E0,1.687515259E0
3.996445680E0,2.639701366E0,-1.075886369E0,1.666898489E0
3.998682374E0,2.653293133E0,-1.083369493E0,1.644907355E0
4.000921083E0,2.655278444E0,-1.111316562E0,1.620320082E0
4.003151795E0,2.646115541E0,-1.149953842E0,1.587027907E0
4.005377015E0,2.618168354E0,-1.202793717E0,1.549917817E0
4.007613893E0,2.576324224E0,-1.278540969E0,1.501506805E0
4.009853700E0,2.528829336E0,-1.335809588E0,1.447139740E0
4.012105165E0,2.488206863E0,-1.349554062E0,1.401324868E0
4.014341676E0,2.470644474E0,-1.316414595E0,1.368338108E0
4.016579652E0,2.476447821E0,-1.224326611E0,1.335656881E0
4.018812257E0,2.501340389E0,-1.101084590E0,1.309542418E0
4.021049257E0,2.524706125E0,-9.862419367E-1,1.289383769E0
4.023285646E0,2.534174442E0,-8.856018782E-1,1.270294309E0
4.025522523E0,2.528676748E0,-8.029823899E-1,1.248608589E0
4.027758180E0,2.497064352E0,-7.283040881E-1,1.229060888E0
4.029991456E0,2.464230299E0,-6.513350606E-1,1.211956620E0
4.032232972E0,2.454914808E0,-5.722280145E-1,1.196226835E0
4.034470582E0,2.469269991E0,-4.815145433E-1,1.169806957E0
4.036707765E0,2.504700184E0,-3.862195611E-1,1.137431145E0
4.038943239E0,2.551126003E0,-2.973386645E-1,1.094212413E0
4.041179750E0,2.592206717E0,-2.301434875E-1,1.049466491E0
4.043416505E0,2.623818874E0,-2.041817009E-1,1.004567862E0
4.045653383E0,2.627484083E0,-2.139555514E-1,9.630290866E-1
4.047890199E0,2.628553152E0,-2.417499274E-1,9.250026941E-1
4.050127320E0,2.621986389E0,-2.683225572E-1,8.929322958E-1
4.052364930E0,2.611907005E0,-2.900082767E-1,8.732318878E-1
4.054600953E0,2.603202343E0,-2.922990322E-1,8.633053303E-1
4.056838259E0,2.590068579E0,-2.774855494E-1,8.633053303E-1
4.059073976E0,2.575713396E0,-2.492330223E-1,8.718574047E-1
4.061298829E0,2.561816216E0,-2.029599845E-1,8.842274547E-1
4.063547670E0,2.547919035E0,-1.577559561E-1,9.013316631E-1
4.065783998E0,2.531425476E0,-1.113301888E-1,9.185886383E-1
4.068025575E0,2.514779568E0,-7.941248268E-2,9.381362796E-1
4.070259096E0,2.490039349E0,-7.284568250E-2,9.599747062E-1
4.072494691E0,2.458732605E0,-9.285151958E-2,9.841039181E-1
4.074731264E0,2.420858860E0,-1.298088580E-1,1.014189005E0
4.076968080E0,2.379167318E0,-1.715004146E-1,1.049161077E0
4.079205140E0,2.331214428E0,-2.118175179E-1,1.087798238E0
4.081441774E0,2.280970812E0,-2.460259795E-1,1.131169677E0
4.083678773E0,2.224923849E0,-2.692388594E-1,1.169806957E0
4.085915590E0,2.168877125E0,-2.838996351E-1,1.207222462E0
4.088153199E0,2.105805159E0,-2.874121070E-1,1.235933065E0
4.090388978E0,2.045634985E0,-2.777909636E-1,1.258840561E0
4.092625856E0,1.983173966E0,-2.571742535E-1,1.273043156E0
4.094859926E0,1.923461914E0,-2.257147133E-1,1.275028467E0
4.097085817E0,1.863749862E0,-1.916589737E-1,1.272279620E0
4.099321535E0,1.801747084E0,-1.589776874E-1,1.258382440E0
4.101572572E0,1.743409395E0,-1.262963861E-1,1.240972757E0
4.103812441E0,1.688889742E0,-9.117163718E-2,1.219745159E0
4.106051271E0,1.630704761E0,-5.726861581E-2,1.195005178E0
4.108283082E0,1.574963331E0,-2.351831272E-2,1.167668939E0
4.110519838E0,1.523039818E0,1.511891466E-2,1.135598540E0
4.112756044E0,1.472337961E0,5.619960278E-2,1.102306366E0
4.114992250E0,1.431562662E0,9.957103431E-2,1.070235968E0
4.117230043E0,1.390940189E0,1.488984078E-1,1.034653068E0
4.119466859E0,1.355509996E0,2.054034323E-1,9.941831827E-1
4.121704286E0,1.327715635E0,2.799290121E-1,9.526443481E-1
4.123940492E0,1.303739190E0,3.593414724E-1,9.098837972E-1
4.126172181E0,1.286940336E0,4.214970171E-1,8.623890281E-1
4.128413942E0,1.269836187E0,4.752531648E-1,8.196284175E-1
4.130650636E0,1.253800869E0,5.241223574E-1,7.768678665E-1
4.132888795E0,1.249066710E0,5.740606189E-1,7.304421067E-1
4.135124391E0,1.245401502E0,6.214026809E-1,6.841690540E-1
4.137361390E0,1.247692227E0,6.565274000E-1,6.377432942E-1
4.139599244E0,1.253495455E0,6.855435371E-1,5.878050923E-1
4.141835817E0,1.265254617E0,7.035640478E-1,5.342016816E-1
4.144068666E0,1.285565853E0,7.079927921E-1,4.755585790E-1
4.146296205E0,1.309084177E0,6.954700947E-1,4.134030640E-1
4.148544801E0,1.332449794E0,6.719517708E-1,3.437644243E-1
4.150781984E0,1.359327912E0,6.337726712E-1,2.715296149E-1
4.153021303E0,1.387274981E0,5.896376967E-1,1.970040351E-1
4.155255250E0,1.415222049E0,5.441282392E-1,1.162171140E-1
4.157492494E0,1.441947460E0,5.012149215E-1,3.191770986E-2
4.159730104E0,1.471421719E0,4.665483236E-1,-5.604688451E-2
4.161964539E0,1.497383475E0,4.393648207E-1,-1.415680200E-1
4.164197755E0,1.519680023E0,4.256203473E-1,-2.160935849E-1
4.166438783E0,1.532355428E0,4.230241776E-1,-2.820670307E-1
4.168676149E0,1.541518450E0,4.312708676E-1,-3.382666409E-1
4.170914064E0,1.547016263E0,4.408919811E-1,-3.908010423E-1
4.173149598E0,1.543656468E0,4.386012554E-1,-4.422664344E-1
4.175386781E0,1.533882618E0,4.242459238E-1,-4.851797223E-1
4.177624025E0,1.526094079E0,3.927863538E-1,-5.209153295E-1
4.179859681E0,1.512044191E0,3.590360582E-1,-5.493205786E-1
4.182096437E0,1.497688890E0,3.168863356E-1,-5.679519773E-1
4.184333131E0,1.478141189E0,2.553416789E-1,-5.708535910E-1
4.186570436E0,1.456608176E0,1.757764816E-1,-5.566509366E-1
4.188806947E0,1.427439332E0,8.170322329E-2,-5.267185569E-1
4.191044618E0,1.398117781E0,-1.481348183E-2,-4.819726646E-1
4.193284913E0,1.365131140E0,-1.052215397E-1,-4.276056588E-1
4.195518129E0,1.323592305E0,-1.893682331E-1,-3.585779071E-1
4.197754030E0,1.279915452E0,-2.528982162E-1,-2.845104933E-1
4.199989809E0,1.235474944E0,-2.909245789E-1,-1.982257664E-1
4.202227663E0,1.182482362E0,-3.153591752E-1,-9.834930301E-2
4.204464540E0,1.128573537E0,-3.265074790E-1,1.114829071E-2
4.206701478E0,1.063669086E0,-3.275764883E-1,1.305724531E-1
4.208938050E0,9.938777685E-1,-3.286454976E-1,2.608394623E-1
4.211176149E0,9.129381180E-1,-3.246748745E-1,3.959933817E-1
4.213412599E0,8.246681094E-1,-3.242167234E-1,5.360342264E-1
4.215648317E0,7.289149761E-1,-3.260493279E-1,6.710354686E-1
4.217884828E0,6.307183504E-1,-3.252857327E-1,7.913759351E-1
4.220121583E0,5.267185569E-1,-3.220787048E-1,8.969029188E-1
4.222358461E0,4.250094891E-1,-3.274237812E-1,9.841039181E-1
4.224595277E0,3.194825351E-1,-3.471241891E-1,1.056491494E0
4.226832094E0,2.174680233E-1,-3.840815127E-1,1.111774802E0
4.229069154E0,1.162171140E-1,-4.439463317E-1,1.153466344E0
4.231306459E0,1.832595654E-2,-5.245805383E-1,1.180497050E0
4.233542299E0,-7.467827946E-2,-6.149885654E-1,1.198975801E0
4.235779115E0,-1.641700417E-1,-7.102835774E-1,1.208749652E0
4.238015687E0,-2.474004179E-1,-8.093964458E-1,1.211345792E0
4.240252565E0,-3.243694305E-1,-9.025533795E-1,1.201724648E0
4.242489625E0,-3.947716653E-1,-9.836457372E-1,1.184925914E0
4.244724672E0,-4.601342380E-1,-1.054047942E0,1.158353209E0
4.246956422E0,-5.164865851E-1,-1.114829063E0,1.125824690E0
4.249200746E0,-5.702427030E-1,-1.169654250E0,1.085965633E0
4.251436586E0,-6.126978397E-1,-1.212414742E0,1.032820463E0
4.253675111E0,-6.475171447E-1,-1.254259109E0,9.786061049E-1
4.255909730E0,-6.786713004E-1,-1.291216373E0,9.132435322E-1
4.258146791E0,-7.034113407E-1,-1.319774389E0,8.468119502E-1
4.260383607E0,-7.243334651E-1,-1.346194267E0,7.744244337E-1
4.262620485E0,-7.389942408E-1,-1.360396862E0,7.008151412E-1
4.264857606E0,-7.495316267E-1,-1.366200089E0,6.223189831E-1
4.267095277E0,-7.551821470E-1,-1.362534881E0,5.476406813E-1
4.269330690E0,-7.615962625E-1,-1.344208956E0,4.718934000E-1
4.271567689E0,-7.631233931E-1,-1.322217822E0,3.935499489E-1
4.273799562E0,-7.632761002E-1,-1.295492411E0,3.165809214E-1
4.276023500E0,-7.646505833E-1,-1.268767118E0,2.432770878E-1
4.278277650E0,-7.623597980E-1,-1.236085773E0,1.724167168E-1
4.280515016E0,-7.625125647E-1,-1.208138704E0,1.027780771E-1
4.282752748E0,-7.603744864E-1,-1.185078621E0,3.924809024E-2
4.284971559E0,-7.582364678E-1,-1.159727693E0,-2.290744707E-2
4.287224855E0,-7.562511563E-1,-1.142776132E0,-8.155050874E-2
4.289461183E0,-7.554876208E-1,-1.128115416E0,-1.342376322E-1
4.291702454E0,-7.548767328E-1,-1.112385631E0,-1.831068546E-1
4.293935121E0,-7.493789196E-1,-1.100321054E0,-2.281581759E-1
4.296171998E0,-7.440338731E-1,-1.093143344E0,-2.709187269E-1
4.298408815E0,-7.400632501E-1,-1.093296051E0,-3.065016270E-1
4.300645875E0,-7.327328324E-1,-1.101848245E0,-3.394883573E-1
4.302883424E0,-7.217372656E-1,-1.117883444E0,-3.700316250E-1
4.305119203E0,-7.121161819E-1,-1.142318010E0,-3.981314301E-1
4.307355836E0,-6.940956116E-1,-1.171792269E0,-4.225660264E-1
4.309589784E0,-6.772968173E-1,-1.204931736E0,-4.482223690E-1
4.311817507E0,-6.520986557E-1,-1.236849427E0,-4.689917862E-1
4.314063539E0,-6.218608022E-1,-1.273959517E0,-4.897612035E-1
4.316302736E0,-5.867360830E-1,-1.311069489E0,-5.091561675E-1
4.318542726E0,-5.491678715E-1,-1.345736146E0,-5.248859525E-1
4.320778321E0,-4.958698750E-1,-1.386816859E0,-5.319108963E-1
4.323013307E0,-4.413501322E-1,-1.431562662E0,-5.389358401E-1
4.325250062E0,-3.793473244E-1,-1.472796082E0,-5.398521423E-1
4.327486330E0,-3.139847219E-1,-1.525025129E0,-5.346598029E-1
4.329723451E0,-2.386955917E-1,-1.576337814E0,-5.244278312E-1
4.331960267E0,-1.586722434E-1,-1.628872156E0,-5.054910183E-1
4.334197145E0,-7.131851465E-2,-1.687515259E0,-4.805982411E-1
4.336431886E0,2.076941915E-2,-1.747685432E0,-4.543310404E-1
4.338662477E0,1.177442744E-1,-1.807855725E0,-4.170682430E-1
4.340904542E0,2.196060568E-1,-1.870469332E0,-3.759875596E-1
4.343132142E0,3.263547719E-1,-1.940566182E0,-3.326161206E-1
4.345382997E0,4.266893864E-1,-2.009288549E0,-2.854267955E-1
4.347617738E0,5.332853794E-1,-2.081676006E0,-2.359467000E-1
4.349857606E0,6.385068893E-1,-2.156507015E0,-1.875356287E-1
4.352091615E0,7.425066829E-1,-2.233934164E0,-1.331686229E-1
4.354329286E0,8.402451277E-1,-2.314721107E0,-8.368854225E-2
4.356566224E0,9.367618561E-1,-2.390621185E0,-3.298672289E-2
4.358801576E0,1.032362223E0,-2.460412502E0,1.527163107E-2
4.361038209E0,1.129337072E0,-2.515695810E0,5.864306539E-2
4.363274904E0,1.215621829E0,-2.557387352E0,9.957103431E-2
4.365512025E0,1.299615860E0,-2.590679407E0,1.392772794E-1
4.367748597E0,1.382540822E0,-2.618932009E0,1.718058437E-1
4.369985414E0,1.458440781E0,-2.634967327E0,2.029599845E-1
4.372222535E0,1.524719596E0,-2.636341572E0,2.280054539E-1
4.374460328E0,1.583668113E0,-2.635119915E0,2.516764700E-1
4.376695924E0,1.637882471E0,-2.623971701E0,2.693915665E-1
4.378932679E0,1.686140776E0,-2.610379934E0,2.857322097E-1
4.381169008E0,1.724472642E0,-2.590526819E0,3.020728528E-1
4.383406312E0,1.754405022E0,-2.574033499E0,3.097086847E-1
4.385642885E0,1.773036361E0,-2.561052561E0,3.184134960E-1
4.387879762E0,1.778228760E0,-2.544253826E0,3.210096955E-1
4.390116761E0,1.772425532E0,-2.525927782E0,3.234531581E-1
4.392354310E0,1.754252315E0,-2.514626741E0,3.234531581E-1
4.394588075E0,1.721265554E0,-2.501798630E0,3.194825351E-1
4.396819337E0,1.679574013E0,-2.494926453E0,3.130684495E-1
4.399063051E0,1.619556427E0,-2.488970518E0,2.941316068E-1
4.401300355E0,1.556942821E0,-2.484083414E0,2.802344263E-1
4.403538820E0,1.478446603E0,-2.476447821E0,2.625193298E-1
4.405774049E0,1.390176535E0,-2.466215611E0,2.373211533E-1
4.408010804E0,1.297172308E0,-2.448653221E0,2.109012306E-1
4.410248414E0,1.190729022E0,-2.421011686E0,1.855503172E-1
4.412484193E0,1.073442936E0,-2.387261391E0,1.565342247E-1
4.414721071E0,9.500481486E-1,-2.349540472E0,1.324050426E-1
4.416957582E0,8.268061280E-1,-2.304794550E0,1.094975919E-1
4.419194459E0,6.986771226E-1,-2.252412796E0,8.781187981E-2
4.421431459E0,5.719226003E-1,-2.193006277E0,7.238753140E-2
4.423663881E0,4.453207552E-1,-2.127338171E0,5.558873713E-2
4.425888490E0,3.150537610E-1,-2.062891960E0,4.367686436E-2
4.428142335E0,1.884519309E-1,-1.996154904E0,2.947424725E-2
4.430378236E0,6.322455406E-2,-1.925752640E0,1.527163107E-2
4.432619142E0,-5.589416996E-2,-1.854281425E0,-1.527163113E-4
4.434851442E0,-1.675297916E-1,-1.779145002E0,-1.313360315E-2
4.437088807E0,-2.767219543E-1,-1.706757545E0,-2.840523422E-2
4.439325807E0,-3.749185503E-1,-1.635591745E0,-4.245513305E-2
4.441562440E0,-4.694499373E-1,-1.563356876E0,-6.001751125E-2
4.443799379E0,-5.540547967E-1,-1.494939923E0,-7.880161703E-2
4.446036622E0,-6.325509548E-1,-1.424232364E0,-9.880745411E-2
4.448272523E0,-7.012733221E-1,-1.361007810E0,-1.162171140E-1
4.450509279E0,-7.612907887E-1,-1.293048978E0,-1.348485053E-1
4.452742921E0,-8.153523803E-1,-1.230129838E0,-1.522581577E-1
4.454971803E0,-8.582656980E-1,-1.169806957E0,-1.719585657E-1
4.457219789E0,-8.962920308E-1,-1.107193232E0,-1.890627891E-1
4.459456422E0,-9.257662892E-1,-1.044732332E0,-2.075414658E-1
4.461693788E0,-9.440922141E-1,-9.836457372E-1,-2.232712507E-1
4.463921144E0,-9.561568499E-1,-9.202684760E-1,-2.414444834E-1
4.466166566E0,-9.598219991E-1,-8.596401215E-1,-2.559525371E-1
