"Time (s)","Acceleration x (m/s^2)","Acceleration y (m/s^2)","Acceleration z (m/s^2)"
1.243388500E-2,-4.061816335E-1,9.509077072E0,1.210768223E0
1.462441000E-2,-3.924229145E-1,9.474979401E0,1.244267821E0
1.681529400E-2,-3.583251834E-1,9.484550476E0,1.220339537E0
1.904547400E-2,-2.721835673E-1,9.521040916E0,1.255035520E0
2.127716400E-2,-2.141576260E-1,9.572486877E0,1.322034478E0
2.352081600E-2,-1.226321608E-1,9.647262573E0,1.399203062E0
2.575848700E-2,-1.734796353E-2,9.716654778E0,1.499701619E0
2.800024700E-2,7.357929647E-2,9.791430473E0,1.658226132E0
3.023151000E-2,1.166501045E-1,9.852447510E0,1.777269006E0
3.246667800E-2,1.645065546E-1,9.922437668E0,1.920838356E0
3.470245700E-2,1.639083475E-1,9.931410789E0,2.030309916E0
3.693982300E-2,1.154536903E-1,9.927223206E0,2.096710920E0
3.917670000E-2,7.597211748E-2,9.884750366E0,2.139781713E0
4.141290600E-2,4.127619043E-2,9.827322960E0,2.167897224E0
4.364917300E-2,1.674975827E-2,9.760921478E0,2.172683001E0
4.588586800E-2,1.196411322E-3,9.713663101E0,2.163111687E0
4.812390500E-2,-4.187439568E-3,9.580264091E0,2.020140409E0
5.035998900E-2,7.178467698E-3,9.363115311E0,1.433898926E0
5.259540100E-2,-4.666004330E-2,9.216554642E0,1.257428288E0
5.482861700E-2,-1.004985496E-1,8.998209953E0,1.033101201E0
5.705621700E-2,-1.190429255E-1,9.013164520E0,9.661021233E-1
5.930475200E-2,-6.520441920E-2,9.089137077E0,9.475577474E-1
6.154108000E-2,-2.093719877E-2,9.160323143E0,9.619147182E-1
6.378088700E-2,1.794617064E-2,9.250054359E0,1.048056364E0
6.601398000E-2,6.699903309E-2,9.349356651E0,1.110269666E0
6.824579200E-2,9.032905847E-2,9.381659508E0,1.220339537E0
7.048743000E-2,6.161518395E-2,9.434301376E0,1.296311617E0
7.272253700E-2,3.230310604E-2,9.443872452E0,1.415354609E0
7.495764500E-2,-1.794616925E-3,9.439684868E0,1.462612867E0
7.719665900E-2,-8.434699476E-2,9.406784058E0,1.552343726E0
7.943347500E-2,-1.663011760E-1,9.374481201E0,1.590030670E0
8.166815500E-2,-2.392822653E-1,9.351150513E0,1.636690736E0
8.389587700E-2,-2.829512656E-1,9.308678627E0,1.683948994E0
8.614264300E-2,-3.320041299E-1,9.275776863E0,1.712662816E0
8.837921500E-2,-3.565305769E-1,9.256634712E0,1.750349760E0
9.061816700E-2,-3.810569942E-1,9.238089561E0,1.811964989E0
9.285217600E-2,-3.906283081E-1,9.247661591E0,1.845464468E0
9.508868800E-2,-3.619144261E-1,9.266205788E0,1.864607096E0
9.732507700E-2,-3.188436031E-1,9.274580956E0,1.898704767E0
9.956189300E-2,-2.997010350E-1,9.293125153E0,1.946561217E0
1.017962680E-1,-2.709871531E-1,9.302696228E0,1.965703845E0
1.040202060E-1,-2.231307179E-1,9.320642471E0,1.971087694E0
1.062595860E-1,-1.992024779E-1,9.329615593E0,2.023729801E0
1.085072670E-1,-1.848455518E-1,9.334401131E0,2.014158487E0
1.107473780E-1,-1.752742529E-1,9.348757744E0,2.014158487E0
1.129834010E-1,-1.513460279E-1,9.329017639E0,2.018944025E0
1.152169830E-1,-1.369891018E-1,9.319445610E0,2.029113531E0
1.174539220E-1,-1.226321608E-1,9.328418732E0,2.038684845E0
1.196915930E-1,-1.130608693E-1,9.333204269E0,2.009970903E0
1.219277990E-1,-8.434699476E-2,9.342177391E0,2.009970903E0
1.241596100E-1,-9.810572863E-2,9.333204269E0,1.957328916E0
1.263869670E-1,-1.357926875E-1,9.357730865E0,1.933400750E0
1.286355020E-1,-1.310070455E-1,9.362516403E0,1.933400750E0
1.308725010E-1,-1.447657645E-1,9.387042999E0,1.895115495E0
1.331120640E-1,-1.304088384E-1,9.372686386E0,1.866401672E0
1.353458900E-1,-1.351944804E-1,9.372686386E0,1.852044702E0
1.375844150E-1,-1.298106313E-1,9.387042999E0,1.819143414E0
1.398235510E-1,-1.435693651E-1,9.430712700E0,1.794616938E0
1.420547520E-1,-1.525424421E-1,9.430712700E0,1.775474429E0
1.442911410E-1,-1.375873089E-1,9.459425926E0,1.752144337E0
1.465269200E-1,-1.621137410E-1,9.454640388E0,1.746760488E0
1.487645300E-1,-1.567298770E-1,9.483354568E0,1.723430514E0
1.510008580E-1,-1.704886109E-1,9.488738060E0,1.708475351E0
1.532376130E-1,-1.986042857E-1,9.498908043E0,1.660618901E0
1.554719270E-1,-1.986042857E-1,9.522835732E0,1.660618901E0
1.576983070E-1,-2.321037948E-1,9.518648148E0,1.651047587E0
1.599466590E-1,-2.362912297E-1,9.542576790E0,1.631905079E0
1.621831700E-1,-2.261217386E-1,9.561718941E0,1.603191137E0
1.644228550E-1,-2.500499785E-1,9.586245537E0,1.593619823E0
1.666553380E-1,-2.644068897E-1,9.581459999E0,1.602592945E0
1.688874550E-1,-2.739782035E-1,9.576674461E0,1.602592945E0
1.711292760E-1,-2.835494876E-1,9.591031075E0,1.597807288E0
1.733667030E-1,-2.542374134E-1,9.586245537E0,1.579262972E0
1.756035190E-1,-2.685943544E-1,9.629316330E0,1.612164259E0
1.778390540E-1,-2.685943544E-1,9.624530792E0,1.616949916E0
1.800750770E-1,-2.350948304E-1,9.643074989E0,1.650449395E0
1.823118930E-1,-2.446661144E-1,9.657432556E0,1.655235052E0
1.845452300E-1,-2.440679073E-1,9.676574707E0,1.650449395E0
1.867730140E-1,-2.249253243E-1,9.695118904E0,1.683948994E0
1.890213660E-1,-2.249253243E-1,9.704689980E0,1.698305845E0
1.912592200E-1,-2.297109663E-1,9.733404160E0,1.727019787E0
1.934983550E-1,-2.207378894E-1,9.723235130E0,1.774876237E0
1.957305940E-1,-2.159522474E-1,9.732806206E0,1.822134495E0
1.979668620E-1,-2.159522474E-1,9.742377281E0,1.841277003E0
2.002034340E-1,-2.111666054E-1,9.746564865E0,1.879562140E0
2.024403110E-1,-2.111666054E-1,9.765707016E0,1.893919110E0
2.046765780E-1,-1.926222295E-1,9.765109062E0,1.946561217E0
2.069132110E-1,-2.069791555E-1,9.765109062E0,1.951346874E0
2.091506990E-1,-2.267199457E-1,9.760921478E0,1.998605132E0
2.113861120E-1,-2.404786795E-1,9.784850121E0,2.027318954E0
2.136227450E-1,-2.410768867E-1,9.784850121E0,2.041675806E0
2.158589510E-1,-2.691925466E-1,9.808777809E0,2.041077614E0
2.180955850E-1,-2.739782035E-1,9.832706451E0,2.074577332E0
2.203320960E-1,-2.883351147E-1,9.814162254E0,2.069791555E0
2.225684240E-1,-3.128615618E-1,9.799804688E0,2.093121529E0
2.248053010E-1,-3.224328458E-1,9.799804688E0,2.102692842E0
2.270426060E-1,-3.469592929E-1,9.786046028E0,2.121237278E0
2.292782020E-1,-3.517449200E-1,9.790832520E0,2.116451740E0
2.315145300E-1,-3.661018610E-1,9.771689415E0,2.097309113E0
2.337507970E-1,-3.804588020E-1,9.748359680E0,2.097309113E0
2.359874300E-1,-4.001995921E-1,9.738788605E0,2.087737799E0
2.382242470E-1,-4.145565331E-1,9.710672379E0,2.078166485E0
2.404605140E-1,-4.384847581E-1,9.710672379E0,2.063809633E0
2.426971470E-1,-4.241278172E-1,9.696913719E0,2.011167526E0
2.449343910E-1,-4.528416991E-1,9.692128181E0,2.001596212E0
2.471700470E-1,-4.618147612E-1,9.702297211E0,1.982453585E0
2.494066200E-1,-4.755735099E-1,9.707083702E0,1.934597135E0
2.516427040E-1,-4.761717021E-1,9.674181938E0,1.891526341E0
2.538794590E-1,-4.851447940E-1,9.688538551E0,1.862812400E0
2.561157870E-1,-4.803591371E-1,9.688538551E0,1.843669891E0
2.583524200E-1,-4.899304509E-1,9.684351921E0,1.824527264E0
2.605892370E-1,-4.893322289E-1,9.665208817E0,1.767697692E0
2.628269080E-1,-4.989035130E-1,9.656235695E0,1.748555183E0
2.650634190E-1,-4.989035130E-1,9.646664619E0,1.734198213E0
2.672987100E-1,-4.989035130E-1,9.646664619E0,1.691127419E0
2.695347330E-1,-4.839483798E-1,9.646664619E0,1.629512191E0
2.717709390E-1,-4.839483798E-1,9.617950439E0,1.610369682E0
2.740076330E-1,-4.498506486E-1,9.627521515E0,1.563111424E0
2.762445100E-1,-4.354937077E-1,9.613164902E0,1.534397483E0
2.784813880E-1,-4.115654826E-1,9.612566948E0,1.515853167E0
2.807186310E-1,-3.780659735E-1,9.598209381E0,1.482353687E0
2.829536780E-1,-3.589234054E-1,9.598209381E0,1.449452281E0
2.851902500E-1,-3.302095234E-1,9.578469276E0,1.439880967E0
2.874265170E-1,-2.961117923E-1,9.573084831E0,1.406979680E0
2.896625390E-1,-2.440679073E-1,9.562915802E0,1.417149186E0
2.918970370E-1,-1.956132501E-1,9.576674461E0,1.379462242E0
2.941350130E-1,-1.381855011E-1,9.566504478E0,1.356132269E0
2.963688390E-1,-9.930214286E-2,9.575477600E0,1.332802176E0
2.986111480E-1,-5.144568533E-2,9.565308571E0,1.347159147E0
3.008458290E-1,-8.374879137E-3,9.564710617E0,1.338186026E0
3.030831940E-1,2.991028316E-2,9.578469276E0,1.343569875E0
3.053184240E-1,6.340979785E-2,9.592227936E0,1.353141189E0
3.075553010E-1,7.776673883E-2,9.582057953E0,1.357926846E0
3.097919350E-1,1.112662554E-1,9.562317848E0,1.358525038E0
3.120284460E-1,1.112662554E-1,9.567103386E0,1.372882009E0
3.142650790E-1,1.345962733E-1,9.561718941E0,1.411167145E0
3.165025060E-1,1.298106313E-1,9.552745819E0,1.415952802E0
3.187345000E-1,1.058823988E-1,9.562317848E0,1.400997639E0
3.209617950E-1,9.571290761E-2,9.538389206E0,1.420140266E0
3.232104530E-1,8.614161611E-2,9.547960281E0,1.439282775E0
3.254472080E-1,1.058823988E-1,9.571888924E0,1.439282775E0
3.276870760E-1,8.135596663E-2,9.567103386E0,1.472782373E0
3.299202920E-1,7.597211748E-2,9.538389206E0,1.481755376E0
3.321571690E-1,5.204389244E-2,9.543772697E0,1.496112347E0
3.343945960E-1,4.247260094E-2,9.553344727E0,1.500898004E0
3.366307410E-1,6.221338734E-2,9.581459999E0,1.505683661E0
3.388662750E-1,7.178468257E-2,9.576674461E0,1.539183140E0
3.411023600E-1,6.699903309E-2,9.581459999E0,1.539183140E0
3.433389930E-1,6.640082598E-2,9.581459999E0,1.553540111E0
3.455758090E-1,8.554340899E-2,9.585647583E0,1.563111424E0
3.478123810E-1,7.597211748E-2,9.571888924E0,1.572682738E0
3.500489540E-1,7.537391037E-2,9.552147865E0,1.596610904E0
3.522861970E-1,1.190429255E-1,9.575477600E0,1.596610904E0
3.545215490E-1,1.088734269E-1,9.556933403E0,1.591825247E0
3.567581210E-1,1.184447184E-1,9.537193298E0,1.587039590E0
3.589942050E-1,1.232303679E-1,9.527621269E0,1.573280931E0
3.612310830E-1,1.328016520E-1,9.532406807E0,1.568495274E0
3.634675940E-1,1.423729509E-1,9.513264656E0,1.568495274E0
3.657050820E-1,1.423729509E-1,9.513264656E0,1.568495274E0
3.679451940E-1,1.519442350E-1,9.508479118E0,1.568495274E0
3.701781040E-1,1.800599098E-1,9.498309135E0,1.569093466E0
3.724137000E-1,1.800599098E-1,9.488738060E0,1.583450437E0
3.746489900E-1,1.896311939E-1,9.488738060E0,1.549950838E0
3.768865390E-1,2.183450609E-1,9.464211464E0,1.569093466E0
3.791229280E-1,2.183450609E-1,9.478569031E0,1.569093466E0
3.813597450E-1,2.231307179E-1,9.488140106E0,1.573879123E0
3.835954020E-1,2.476571500E-1,9.497113228E0,1.555334687E0
3.858290440E-1,2.572284341E-1,9.487542152E0,1.550549030E0
3.880642740E-1,2.614158690E-1,9.477970123E0,1.560120344E0
3.903055450E-1,2.805584669E-1,9.468399048E0,1.550549030E0
3.925426670E-1,2.715853751E-1,9.482755661E0,1.531406522E0
3.947796660E-1,2.949153781E-1,9.468399048E0,1.527219057E0
3.970153230E-1,2.859423161E-1,9.482755661E0,1.512862086E0
3.992518350E-1,2.811566591E-1,9.468399048E0,1.512862086E0
4.014881630E-1,2.859423161E-1,9.473184586E0,1.517647743E0
4.037246130E-1,3.002992272E-1,9.482157707E0,1.522433400E0
4.059620390E-1,2.949153781E-1,9.463015556E0,1.545763373E0
4.081987950E-1,3.092723191E-1,9.458230019E0,1.536790371E0
4.104339630E-1,3.236292601E-1,9.472586632E0,1.555932879E0
4.126702920E-1,3.427718580E-1,9.476774216E0,1.575075507E0
4.149064980E-1,3.667000830E-1,9.490532875E0,1.575075507E0
4.171434360E-1,3.960121572E-1,9.513862610E0,1.590030670E0
4.193799470E-1,3.864408433E-1,9.509675026E0,1.599003673E0
4.216165800E-1,3.960121572E-1,9.523433685E0,1.604387641E0
4.238538240E-1,4.151547253E-1,9.518648148E0,1.618744493E0
4.260862460E-1,4.247260094E-1,9.518050194E0,1.628315806E0
4.283141510E-1,4.336991012E-1,9.518050194E0,1.666600943E0
4.305623820E-1,4.241278172E-1,9.527621269E0,1.671386600E0
4.327960240E-1,4.145565331E-1,9.537193298E0,1.709073544E0
4.350264930E-1,4.145565331E-1,9.551549911E0,1.733001828E0
4.372717930E-1,3.996013701E-1,9.551549911E0,1.766501307E0
4.395086700E-1,3.900300860E-1,9.565906525E0,1.789831281E0
4.417487820E-1,3.326023519E-1,9.580862045E0,1.817947030E0
4.439808380E-1,2.991028428E-1,9.576674461E0,1.850848317E0
4.462178990E-1,2.697907388E-1,9.571888924E0,1.893919110E0
4.484542270E-1,2.309073806E-1,9.558130264E0,1.941177368E0
4.506881740E-1,1.926222295E-1,9.544371605E0,1.940579176E0
4.529153480E-1,1.483550072E-1,9.520442963E0,1.983051777E0
4.551637000E-1,1.148554832E-1,9.516255379E0,2.026122570E0
4.574006990E-1,8.494520187E-2,9.477970123E0,2.054238319E0
4.596408120E-1,6.101697683E-2,9.478569031E0,2.068595171E0
4.618734170E-1,3.649054468E-2,9.459425926E0,2.101496458E0
4.641077310E-1,1.734796353E-2,9.445667267E0,2.120639086E0
4.663382600E-1,-6.580262445E-3,9.460023880E0,2.120040894E0
4.685828890E-1,-5.443671346E-2,9.455837250E0,2.124826431E0
4.708194000E-1,-8.853443712E-2,9.437292099E0,2.124228239E0
4.730574370E-1,-8.793623000E-2,9.470791817E0,2.133799553E0
4.752923620E-1,-1.070788130E-1,9.457033157E0,2.109871387E0
4.775302160E-1,-1.357926875E-1,9.457631111E0,2.057229280E0
4.797667880E-1,-1.549352705E-1,9.453444481E0,2.057229280E0
4.820018350E-1,-1.543370634E-1,9.448657990E0,2.018944025E0
4.842349280E-1,-1.399801224E-1,9.453444481E0,1.990230203E0
4.864627110E-1,-1.112662554E-1,9.428917885E0,1.995614052E0
4.887094760E-1,-9.152546525E-2,9.448060036E0,1.938186288E0
4.909395790E-1,-6.340979785E-2,9.428318977E0,1.933998942E0
4.931875040E-1,-2.931207791E-2,9.428318977E0,1.924427629E0
4.954221840E-1,1.854437590E-2,9.413364410E0,1.881955028E0
4.976593660E-1,9.511470050E-2,9.416953087E0,1.883151412E0
4.998936190E-1,1.339980662E-1,9.430712700E0,1.873580098E0
5.021296420E-1,1.962114573E-1,9.430113792E0,1.835893154E0
5.043668250E-1,2.344966233E-1,9.419944763E0,1.817348838E0
5.066033970E-1,2.973082066E-1,9.437891006E0,1.817947030E0
5.088369170E-1,3.547359705E-1,9.432506561E0,1.808973908E0
5.110651280E-1,3.930211067E-1,9.427123070E0,1.785643935E0
5.133140290E-1,4.271188378E-1,9.445667267E0,1.800000787E0
5.155491980E-1,4.462614357E-1,9.455238342E0,1.790429592E0
5.177865020E-1,4.797609448E-1,9.445069313E0,1.791027784E0
5.200133700E-1,4.845465720E-1,9.473184586E0,1.810170293E0
5.222584260E-1,4.797609448E-1,9.459425926E0,1.805384636E0
5.244952430E-1,4.558327198E-1,9.478569031E0,1.823929071E0
5.267338900E-1,4.510470629E-1,9.497711182E0,1.862214208E0
5.289684480E-1,4.127618968E-1,9.503094673E0,1.866401672E0
5.312056310E-1,3.882354796E-1,9.483952522E0,1.899901152E0
5.334409820E-1,3.308077157E-1,9.498908043E0,1.913659930E0
5.356776160E-1,2.973082066E-1,9.523433685E0,1.941775560E0
5.379138830E-1,2.542374134E-1,9.533603668E0,1.965105653E0
5.401505160E-1,2.015953064E-1,9.543772697E0,1.959721804E0
5.423870880E-1,1.351944804E-1,9.578469276E0,1.944766641E0
5.446236610E-1,6.400800496E-2,9.603593826E0,1.958525300E0
5.468605380E-1,3.050848842E-2,9.622735977E0,1.972284079E0
5.490980870E-1,-7.776673418E-3,9.608977318E0,1.962712765E0
5.513343540E-1,-6.041877344E-2,9.634101868E0,1.952543259E0
5.535696450E-1,-8.913264424E-2,9.648459435E0,1.962114573E0
5.558027380E-1,-1.316052526E-1,9.668199539E0,1.975873351E0
5.580302770E-1,-1.513460279E-1,9.678369522E0,2.003988981E0
5.602788730E-1,-1.704886109E-1,9.668798447E0,1.994417667E0
5.625155060E-1,-1.944168359E-1,9.688538551E0,2.023131609E0
5.647553140E-1,-2.177468538E-1,9.693324089E0,2.008176327E0
5.669896270E-1,-2.183450609E-1,9.683753014E0,2.003390789E0
5.692249790E-1,-2.422732860E-1,9.674779892E0,2.003390789E0
5.714615510E-1,-2.416750938E-1,9.708279610E0,2.012962103E0
5.736978800E-1,-2.560320199E-1,9.732208252E0,2.012962103E0
5.759347570E-1,-2.608176768E-1,9.736993790E0,2.031506538E0
5.781712680E-1,-2.650051117E-1,9.760921478E0,2.041077614E0
5.804075960E-1,-2.889333367E-1,9.771091461E0,2.050648928E0
5.826436180E-1,-3.032902777E-1,9.775876999E0,2.059622049E0
5.848754910E-1,-3.367897868E-1,9.809974670E0,2.083550215E0
5.871050450E-1,-3.553341627E-1,9.838688850E0,2.068595171E0
5.893533970E-1,-3.984049559E-1,9.848857880E0,2.082952023E0
5.915907010E-1,-4.319044948E-1,9.859027863E0,2.125424623E0
5.938295330E-1,-4.408775866E-1,9.897313118E0,2.125424623E0
5.960631750E-1,-4.654040039E-1,9.887741089E0,2.167897224E0
5.982996250E-1,-5.228317380E-1,9.903294563E0,2.167299032E0
6.005334500E-1,-5.515456200E-1,9.903294563E0,2.185843468E0
6.027623940E-1,-5.563312769E-1,9.903294563E0,2.190629244E0
6.050094030E-1,-5.796613097E-1,9.932606697E0,2.171486616E0
6.072457310E-1,-5.796613097E-1,9.942177773E0,2.185843468E0
6.094845610E-1,-6.035895348E-1,9.951749802E0,2.181057930E0
6.117182650E-1,-6.227321029E-1,9.933204651E0,2.170888424E0
6.139548990E-1,-6.370890141E-1,9.957731247E0,2.142174482E0
6.161915320E-1,-6.370890141E-1,9.933803558E0,2.132603168E0
6.184283480E-1,-6.460621357E-1,9.962516785E0,2.118246317E0
6.206656530E-1,-6.556333899E-1,9.967302322E0,2.075175524E0
6.229019200E-1,-6.598208547E-1,9.987043381E0,2.046461582E0
6.251372720E-1,-6.646065116E-1,9.987043381E0,2.032104731E0
6.273736610E-1,-6.735795736E-1,1.000139999E1,2.027318954E0
6.296101720E-1,-6.586244106E-1,1.000618649E1,1.984846354E0
6.318468050E-1,-6.490531564E-1,9.996614456E0,1.946561217E0
6.340833160E-1,-6.484549642E-1,1.001575756E1,1.932204247E0
6.363199500E-1,-6.340979934E-1,9.996614456E0,1.889731646E0
6.385574990E-1,-6.101697683E-1,1.000139999E1,1.870589137E0
6.407927890E-1,-6.095715761E-1,1.000618649E1,1.832303882E0
6.430291780E-1,-6.334998012E-1,1.000678444E1,1.817947030E0
6.452654460E-1,-6.191428304E-1,9.997213364E0,1.789233088E0
6.475022620E-1,-6.191428304E-1,1.000199890E1,1.774876237E0
6.497386510E-1,-6.137589812E-1,1.001156998E1,1.756331801E0
6.519752840E-1,-6.041877270E-1,1.002114105E1,1.741974831E0
6.542093540E-1,-5.994020700E-1,1.001156998E1,1.722832322E0
6.564376870E-1,-6.041877270E-1,1.000199890E1,1.718046665E0
6.586850010E-1,-6.137589812E-1,1.001156998E1,1.718046665E0
6.609214510E-1,-6.185446382E-1,1.000259686E1,1.689332843E0
6.631605250E-1,-6.329016089E-1,9.988240242E0,1.689332843E0
6.653943520E-1,-6.329016089E-1,9.978668213E0,1.660618901E0
6.676306190E-1,-6.376872063E-1,9.954740524E0,1.655833244E0
6.698670080E-1,-6.526423693E-1,9.926624298E0,1.670190215E0
6.721038850E-1,-6.574280262E-1,9.907482147E0,1.641476393E0
6.743414340E-1,-6.628118753E-1,9.878767967E0,1.636690736E0
6.765767860E-1,-6.675975323E-1,9.850652695E0,1.612762451E0
6.788131140E-1,-6.825526357E-1,9.821938515E0,1.579262972E0
6.810494420E-1,-6.777670383E-1,9.802796364E0,1.584048629E0
6.832865020E-1,-6.687939167E-1,9.778867722E0,1.579861164E0
6.855229530E-1,-6.544370055E-1,9.750154495E0,1.570289850E0
6.877595860E-1,-6.406782866E-1,9.725627899E0,1.570289850E0
6.899956700E-1,-6.311069727E-1,9.701699257E0,1.551147223E0
6.922335240E-1,-6.023930907E-1,9.687342644E0,1.556531072E0
6.944697910E-1,-5.551348329E-1,9.672387123E0,1.547558069E0
6.967055090E-1,-5.312066078E-1,9.676574707E0,1.571486235E0
6.989415320E-1,-5.024927258E-1,9.652048111E0,1.557727575E0
7.011781040E-1,-5.024927258E-1,9.632905960E0,1.538584948E0
7.034119290E-1,-4.594219327E-1,9.632308006E0,1.557727575E0
7.056413610E-1,-4.450650215E-1,9.641879082E0,1.567298889E0
7.078953890E-1,-4.307080805E-1,9.613164902E0,1.529611826E0
7.101253090E-1,-4.163511395E-1,9.602995872E0,1.515254974E0
7.123636500E-1,-4.025924206E-1,9.598209381E0,1.529611826E0
7.145954010E-1,-3.882354796E-1,9.593423843E0,1.525424480E0
7.168332560E-1,-3.643072546E-1,9.568898201E0,1.515853167E0
7.190699500E-1,-3.499503136E-1,9.578469276E0,1.520638824E0
7.213067050E-1,-3.314059377E-1,9.549157143E0,1.530808330E0
7.235430940E-1,-3.074777126E-1,9.539586067E0,1.506880045E0
7.257800330E-1,-3.074777126E-1,9.534799576E0,1.497308731E0
7.280174600E-1,-2.931207716E-1,9.538987160E0,1.506880045E0
7.302528110E-1,-2.644068897E-1,9.510273933E0,1.517049551E0
7.324891390E-1,-2.458625287E-1,9.490532875E0,1.507478237E0
7.347253450E-1,-2.362912297E-1,9.480961800E0,1.512263894E0
7.369619790E-1,-2.219343036E-1,9.471389771E0,1.498505235E0
7.391986120E-1,-2.027917206E-1,9.456435204E0,1.503290772E0
7.414351840E-1,-1.746760458E-1,9.446265221E0,1.512862086E0
7.436720000E-1,-1.459621787E-1,9.431908607E0,1.523031592E0
7.459105260E-1,-1.603191197E-1,9.446265221E0,1.499103427E0
7.481505160E-1,-1.369891018E-1,9.421739578E0,1.551745534E0
7.503811680E-1,-1.124626622E-1,9.436096191E0,1.551745534E0
7.526173130E-1,-7.417750359E-2,9.445069313E0,1.557129383E0
7.548526030E-1,-8.853443712E-2,9.445069313E0,1.552343726E0
7.570903970E-1,-5.623133108E-2,9.396614075E0,1.576271892E0
7.593270300E-1,-5.563312769E-2,9.415757179E0,1.576271892E0
7.615638460E-1,-4.187439755E-2,9.387042999E0,1.595414519E0
7.638014560E-1,-3.230310604E-2,9.396016121E0,1.609771490E0
7.660377840E-1,-4.247260094E-2,9.376873970E0,1.638485312E0
7.682733190E-1,-3.768695518E-2,9.367302895E0,1.657627940E0
7.705064730E-1,-5.742774159E-2,9.357730865E0,1.657627940E0
7.727341350E-1,-5.204389244E-2,9.391230583E0,1.671984792E0
7.749822420E-1,-5.742774159E-2,9.372088432E0,1.690529227E0
7.772191200E-1,-5.324030295E-2,9.348159790E0,1.719243050E0
7.794588660E-1,-3.828516230E-2,9.376275063E0,1.728814363E0
7.816904330E-1,-4.785645381E-2,9.391230583E0,1.728814363E0
7.839171180E-1,-5.742774159E-2,9.405587196E0,1.752742529E0
7.861651650E-1,-3.828516230E-2,9.409774780E0,1.762313843E0
7.884014320E-1,-8.135596663E-2,9.429515839E0,1.785643935E0
7.906409330E-1,-9.571290761E-2,9.443872452E0,1.828714728E0
7.928746370E-1,-1.004985496E-1,9.439086914E0,1.833500385E0
7.951112100E-1,-1.531406492E-1,9.439684868E0,1.828116536E0
7.973480870E-1,-1.818545163E-1,9.449854851E0,1.846660852E0
7.995823400E-1,-2.105683982E-1,9.464211464E0,1.870589137E0
8.018086580E-1,-2.249253243E-1,9.455238342E0,1.870589137E0
8.040569490E-1,-2.488535494E-1,9.483952522E0,1.879562140E0
8.062932780E-1,-2.488535494E-1,9.483952522E0,1.893919110E0
8.085331460E-1,-2.871387303E-1,9.489336014E0,1.917249203E0
8.107667270E-1,-2.973082066E-1,9.479764938E0,1.922034740E0
8.130030550E-1,-3.158525825E-1,9.494720459E0,1.931606054E0
8.152398710E-1,-3.254238665E-1,9.489934921E0,1.926820397E0
8.174771150E-1,-3.541377485E-1,9.495318413E0,1.926222205E0
8.197124670E-1,-3.493520916E-1,9.490532875E0,1.902294040E0
8.219487950E-1,-3.487538993E-1,9.504889488E0,1.873580098E0
8.241806670E-1,-3.589234054E-1,9.509675026E0,1.897508383E0
8.264041780E-1,-3.732803464E-1,9.504889488E0,1.887937069E0
8.286586340E-1,-3.541377485E-1,9.500103951E0,1.868794441E0
8.308952060E-1,-3.391826153E-1,9.519247055E0,1.850250125E0
8.331364780E-1,-3.385843933E-1,9.514460564E0,1.816750646E0
8.353695100E-1,-3.296113312E-1,9.495318413E0,1.797608018E0
8.376055330E-1,-3.098705411E-1,9.514460564E0,1.774278045E0
8.398408850E-1,-2.907279432E-1,9.480362892E0,1.750349760E0
8.420772130E-1,-2.907279432E-1,9.489934921E0,1.750349760E0
8.443137850E-1,-2.859423161E-1,9.494720459E0,1.726421595E0
8.465504180E-1,-2.518445849E-1,9.504291534E0,1.688734531E0
8.487869910E-1,-2.470589429E-1,9.504291534E0,1.707877159E0
8.510238070E-1,-2.225325108E-1,9.551549911E0,1.679163337E0
8.532611120E-1,-1.986042857E-1,9.551549911E0,1.689332843E0
8.554964630E-1,-1.932204217E-1,9.584450722E0,1.674975872E0
8.577330360E-1,-1.878365725E-1,9.598808289E0,1.660618901E0
8.599693030E-1,-1.830509305E-1,9.603593826E0,1.665404558E0
8.622059360E-1,-1.734796464E-1,9.617950439E0,1.670190215E0
8.644425080E-1,-1.920240223E-1,9.646664619E0,1.674975872E0
8.666760900E-1,-1.962114573E-1,9.675976753E0,1.660618901E0
8.689039340E-1,-2.255235314E-1,9.661619186E0,1.674377680E0
8.711529580E-1,-2.392822653E-1,9.676574707E0,1.664806366E0
8.733885530E-1,-2.392822653E-1,9.695118904E0,1.698305845E0
8.756280560E-1,-2.679961324E-1,9.705288887E0,1.707278967E0
8.778612710E-1,-2.829512656E-1,9.677172661E0,1.688136339E0
8.800982090E-1,-2.925225794E-1,9.681958199E0,1.707278967E0
8.823342930E-1,-3.116651475E-1,9.701101303E0,1.735394597E0
8.845709260E-1,-3.355933726E-1,9.701699257E0,1.716252089E0
8.868076820E-1,-3.499503136E-1,9.692128181E0,1.725823283E0
8.890451080E-1,-3.403790295E-1,9.692128181E0,1.730608940E0
8.912806430E-1,-3.643072546E-1,9.701699257E0,1.716252089E0
8.935169710E-1,-3.547359705E-1,9.677771568E0,1.721037745E0
8.957532990E-1,-3.690928817E-1,9.672985077E0,1.721037745E0
8.979900550E-1,-3.834498227E-1,9.668798447E0,1.701296926E0
9.002264440E-1,-3.888336718E-1,9.654440880E0,1.706082582E0
9.024629550E-1,-3.882354796E-1,9.668798447E0,1.701296926E0
9.046965970E-1,-3.792623878E-1,9.635298729E0,1.711466432E0
9.069254180E-1,-3.792623878E-1,9.649655342E0,1.701895118E0
9.091734650E-1,-3.840480447E-1,9.635298729E0,1.706680775E0
9.114090610E-1,-3.696911037E-1,9.635298729E0,1.697109461E0
9.136480740E-1,-3.696911037E-1,9.630513191E0,1.716252089E0
9.158816560E-1,-3.649054468E-1,9.616155624E0,1.687538147E0
9.181182290E-1,-3.702892959E-1,9.606584549E0,1.687538147E0
9.203548620E-1,-3.607180119E-1,9.605986595E0,1.706680775E0
9.225916780E-1,-3.272185028E-1,9.582057953E0,1.673779488E0
9.248290440E-1,-3.176472187E-1,9.596415520E0,1.683350682E0
9.270645790E-1,-3.272185028E-1,9.601201057E0,1.688136339E0
9.293008460E-1,-2.745763958E-1,9.609575272E0,1.712064624E0
9.315369300E-1,-2.697907388E-1,9.585647583E0,1.697707653E0
9.337737460E-1,-2.362912297E-1,9.570692062E0,1.707877159E0
9.360103180E-1,-2.362912297E-1,9.589835167E0,1.712662816E0
9.382467080E-1,-2.219343036E-1,9.580264091E0,1.712662816E0
9.404835850E-1,-2.075773627E-1,9.608977318E0,1.707877159E0
9.427210730E-1,-1.884347796E-1,9.603593826E0,1.722832322E0
9.449564850E-1,-1.597209126E-1,9.598209381E0,1.732403636E0
9.471930580E-1,-1.351944804E-1,9.635896683E0,1.746760488E0
9.494292640E-1,-1.447657645E-1,9.622138023E0,1.737189293E0
9.516658970E-1,-1.304088384E-1,9.650253296E0,1.761117458E0
9.539024080E-1,-1.208375469E-1,9.645467758E0,1.775474429E0
9.561387360E-1,-1.118644550E-1,9.626325607E0,1.761117458E0
9.583756750E-1,-1.208375469E-1,9.640682220E0,1.756331801E0
9.606131630E-1,-1.208375469E-1,9.645467758E0,1.741974831E0
9.628485140E-1,-1.399801224E-1,9.631709099E0,1.732403636E0
9.650849030E-1,-1.447657645E-1,9.641280174E0,1.741974831E0
9.673213540E-1,-1.399801224E-1,9.641280174E0,1.741974831E0
9.695568880E-1,-1.351944804E-1,9.640682220E0,1.732403636E0
9.717901040E-1,-1.686939895E-1,9.626923561E0,1.722832322E0
9.740306430E-1,-1.537388563E-1,9.655637741E0,1.713261008E0
9.762679480E-1,-1.680957973E-1,9.646664619E0,1.698904037E0
9.785063510E-1,-1.872383654E-1,9.675378799E0,1.689332843E0
9.807416420E-1,-2.063809484E-1,9.661619186E0,1.664806366E0
9.829768100E-1,-2.009970993E-1,9.666405678E0,1.617548108E0
9.852130160E-1,-2.057827413E-1,9.652048111E0,1.617548108E0
9.874497720E-1,-2.195414752E-1,9.686145782E0,1.588834286E0
9.896863440E-1,-2.297109663E-1,9.647860527E0,1.564906001E0
9.919227330E-1,-2.392822653E-1,9.647860527E0,1.560120344E0
9.941571080E-1,-2.679961324E-1,9.648459435E0,1.554736495E0
9.963873940E-1,-2.632105052E-1,9.634101868E0,1.526022673E0
9.986292150E-1,-2.721835673E-1,9.644271851E0,1.473978758E0
1.000854862E0,-2.434697002E-1,9.643673897E0,1.488335729E0
1.003107425E0,-2.626122832E-1,9.644271851E0,1.459621787E0
1.005338748E0,-2.620140910E-1,9.644271851E0,1.440479279E0
1.007568118E0,-2.572284341E-1,9.663414001E0,1.450050473E0
1.009802432E0,-2.524427772E-1,9.653842926E0,1.402194023E0
1.012040286E0,-2.715853751E-1,9.659226418E0,1.411765337E0
1.014292057E0,-2.566302419E-1,9.687342644E0,1.402194023E0
1.016526920E0,-2.853440940E-1,9.683155060E0,1.421336651E0
1.018763676E0,-2.901297510E-1,9.683155060E0,1.444666624E0
1.020996830E0,-2.949153781E-1,9.716654778E0,1.439880967E0
1.023233707E0,-3.236292601E-1,9.721440315E0,1.454237938E0
1.025470340E0,-3.475574851E-1,9.726823807E0,1.477568030E0
1.027706913E0,-3.667000830E-1,9.731609344E0,1.472782373E0
1.029943546E0,-3.906283081E-1,9.736993790E0,1.467996716E0
1.032181034E0,-4.193421602E-1,9.741779327E0,1.496112347E0
1.034416385E0,-4.528416991E-1,9.747162819E0,1.533799291E0
1.036652958E0,-4.821537733E-1,9.733404160E0,1.514656782E0
1.038888920E0,-4.869394004E-1,9.738189697E0,1.543370605E0
1.041125553E0,-5.204389095E-1,9.734002113E0,1.542772412E0
1.043362125E0,-5.395814776E-1,9.753145218E0,1.547558069E0
1.045598758E0,-5.730810165E-1,9.758528709E0,1.551745534E0
1.047835148E0,-5.826523304E-1,9.729815483E0,1.566102386E0
1.050071231E0,-6.071787477E-1,9.720842361E0,1.561316729E0
1.052309513E0,-5.928218365E-1,9.729815483E0,1.580459356E0
1.054544253E0,-6.023930907E-1,9.734601021E0,1.580459356E0
1.056778507E0,-5.832505226E-1,9.725028992E0,1.590030670E0
1.059017887E0,-6.077769399E-1,9.692128181E0,1.585245013E0
1.061254215E0,-5.688936114E-1,9.705886841E0,1.575673699E0
1.063491641E0,-5.593222976E-1,9.719645500E0,1.585245013E0
1.065725467E0,-5.306084156E-1,9.705288887E0,1.561915040E0
1.067956424E0,-5.210371017E-1,9.705288887E0,1.552343726E0
1.070200443E0,-4.917250574E-1,9.714262009E0,1.538584948E0
1.072437381E0,-4.779663086E-1,9.699904442E0,1.538584948E0
1.074675357E0,-4.677968323E-1,9.699904442E0,1.519442320E0
1.076910038E0,-4.444667995E-1,9.684949875E0,1.524826288E0
1.079146244E0,-3.816552162E-1,9.684351921E0,1.506281853E0
1.081382877E0,-3.678964674E-1,9.683753014E0,1.525424480E0
1.083619449E0,-3.487538993E-1,9.664610863E0,1.511067510E0
1.085856754E0,-3.487538993E-1,9.669396400E0,1.520638824E0
1.088092167E0,-3.296113312E-1,9.659226418E0,1.530210137E0
1.090329044E0,-3.200400174E-1,9.654440880E0,1.530210137E0
1.092565311E0,-3.008974493E-1,9.653842926E0,1.521237016E0
1.094801944E0,-2.584248483E-1,9.629316330E0,1.545165181E0
1.097038395E0,-2.679961324E-1,9.619745255E0,1.540379524E0
1.099271854E0,-2.392822653E-1,9.624530792E0,1.560120344E0
1.101500186E0,-2.249253243E-1,9.623932838E0,1.569691658E0
1.103749088E0,-2.297109663E-1,9.633503914E0,1.579262972E0
1.105985538E0,-2.015953064E-1,9.618548393E0,1.579262972E0
1.108228825E0,-2.063809484E-1,9.604191780E0,1.612762451E0
1.110457096E0,-2.063809484E-1,9.608977318E0,1.612762451E0
1.112693973E0,-2.021935135E-1,9.589835167E0,1.636690736E0
1.114928958E0,-1.974078715E-1,9.589835167E0,1.660618901E0
1.117166568E0,-1.932204217E-1,9.584450722E0,1.684547186E0
1.119403385E0,-2.027917206E-1,9.575477600E0,1.679761529E0
1.121639774E0,-2.129612118E-1,9.561120987E0,1.698305845E0
1.123872501E0,-1.890329868E-1,9.536594391E0,1.713261008E0
1.126112979E0,-1.938186288E-1,9.536594391E0,1.722832322E0
1.128349247E0,-1.896311939E-1,9.517452240E0,1.741974831E0
1.130586795E0,-1.752742529E-1,9.540781975E0,1.761117458E0
1.132822330E0,-1.615155339E-1,9.516854286E0,1.780260086E0
1.135058658E0,-1.663011760E-1,9.526425362E0,1.794616938E0
1.137295536E0,-1.280160099E-1,9.535398483E0,1.832902193E0
1.139532779E0,-1.136590764E-1,9.520442963E0,1.856830359E0
1.141768192E0,-1.094716340E-1,9.510871887E0,1.866401672E0
1.144004764E0,-6.640082598E-2,9.510273933E0,1.886142492E0
1.146241092E0,-7.118647546E-2,9.510273933E0,1.876571178E0
1.148477909E0,-6.161518395E-2,9.509675026E0,1.900499344E0
1.150714237E0,-7.118647546E-2,9.514460564E0,1.919043779E0
1.152950748E0,-7.657032460E-2,9.495318413E0,1.938186288E0
1.155187381E0,-5.742774159E-2,9.504889488E0,1.942971945E0
1.157424930E0,-8.614161611E-2,9.519247055E0,1.962114573E0
1.159660282E0,-9.571290761E-2,9.515059471E0,1.966900229E0
1.161896915E0,-1.106680483E-1,9.495916367E0,1.971087694E0
1.164132816E0,-1.004985496E-1,9.505488396E0,1.971685886E0
1.166368595E0,-9.571290761E-2,9.515059471E0,1.966900229E0
1.168605167E0,-1.004985496E-1,9.519845009E0,1.962114573E0
1.170834232E0,-8.614161611E-2,9.500701904E0,1.923829436E0
1.173067813E0,-7.657032460E-2,9.486345291E0,1.919043779E0
1.175316715E0,-7.657032460E-2,9.495318413E0,1.933400750E0
1.177553715E0,-8.135596663E-2,9.491130829E0,1.933400750E0
1.179791691E0,-8.614161611E-2,9.471988678E0,1.880758643E0
1.182024967E0,-6.699903309E-2,9.481559753E0,1.895713687E0
1.184261600E0,-7.118647546E-2,9.495916367E0,1.871785522E0
1.186498417E0,-8.554340899E-2,9.495916367E0,1.847857237E0
1.188734745E0,-9.511470050E-2,9.496515274E0,1.847259045E0
1.190971622E0,-8.494520187E-2,9.515657425E0,1.804786444E0
1.193209110E0,-9.930214286E-2,9.520442963E0,1.800000787E0
1.195445499E0,-9.391828626E-2,9.539586067E0,1.785643935E0
1.197678043E0,-8.374879509E-2,9.568299294E0,1.771286964E0
1.199902591E0,-9.810572863E-2,9.577870369E0,1.752144337E0
1.202143375E0,-9.272187948E-2,9.592227936E0,1.733001828E0
1.204390262E0,-7.357929647E-2,9.597013474E0,1.713859200E0
1.206630009E0,-8.255238086E-2,9.620942116E0,1.694716692E0
1.208865971E0,-1.016949639E-1,9.631111145E0,1.699502230E0
1.211100956E0,-1.010967568E-1,9.664610863E0,1.680359721E0
1.213336246E0,-1.154536903E-1,9.664610863E0,1.670788407E0
1.215572940E0,-1.339980662E-1,9.679565430E0,1.656431437E0
1.217809147E0,-1.381855011E-1,9.722636223E0,1.665404558E0
1.220045719E0,-1.477568001E-1,9.717850685E0,1.651047587E0
1.222282108E0,-1.860419661E-1,9.728020668E0,1.674377680E0
1.224518924E0,-2.147558331E-1,9.738189697E0,1.640878081E0
1.226755741E0,-2.189432681E-1,9.747760773E0,1.636092424E0
1.228992862E0,-2.237289101E-1,9.757930756E0,1.612164259E0
1.231228397E0,-2.476571500E-1,9.743574142E0,1.612164259E0
1.233464908E0,-2.620140910E-1,9.753743172E0,1.602592945E0
1.235700137E0,-2.955136001E-1,9.739984512E0,1.582852125E0
1.237934147E0,-3.050848842E-1,9.744770050E0,1.606780410E0
1.240174137E0,-3.481557071E-1,9.745368004E0,1.606182218E0
1.242410770E0,-3.481557071E-1,9.759725571E0,1.610967875E0
1.244648501E0,-4.007977843E-1,9.760323524E0,1.610369682E0
1.246884891E0,-3.912265003E-1,9.760323524E0,1.625324726E0
1.249120182E0,-3.960121572E-1,9.765109062E0,1.629512191E0
1.251356571E0,-3.960121572E-1,9.769894600E0,1.643869162E0
1.253593143E0,-4.301098585E-1,9.746564865E0,1.629512191E0
1.255830021E0,-4.247260094E-1,9.784850121E0,1.619940877E0
1.258066593E0,-4.336991012E-1,9.808179855E0,1.658226132E0
1.260302799E0,-4.438686073E-1,9.808777809E0,1.662413478E0
1.262539493E0,-4.576273263E-1,9.823135376E0,1.681556106E0
1.264774051E0,-4.671986103E-1,9.847063065E0,1.695913076E0
1.266999820E0,-4.863412082E-1,9.861420631E0,1.695314884E0
1.269248722E0,-5.006981492E-1,9.857233047E0,1.700100541E0
1.271485111E0,-5.054838061E-1,9.880562782E0,1.743171334E0
1.273724918E0,-5.054838061E-1,9.871589661E0,1.733600020E0
1.275958438E0,-5.341976285E-1,9.876375198E0,1.756929994E0
1.278194889E0,-5.389832854E-1,9.876375198E0,1.766501307E0
1.280431583E0,-5.443671346E-1,9.857233047E0,1.756929994E0
1.282669071E0,-5.347958803E-1,9.847661972E0,1.737787485E0
1.284904361E0,-5.395814776E-1,9.862018585E0,1.766501307E0
1.287140751E0,-5.587241054E-1,9.853045464E0,1.766501307E0
1.289377018E0,-5.587241054E-1,9.843474388E0,1.771286964E0
1.291613895E0,-5.443671346E-1,9.847661972E0,1.771286964E0
1.293850467E0,-5.497509837E-1,9.824331284E0,1.747358680E0
1.296086856E0,-5.497509837E-1,9.819545746E0,1.752144337E0
1.298323856E0,-5.497509837E-1,9.809974670E0,1.747358680E0
1.300560917E0,-5.593222976E-1,9.805189133E0,1.718644857E0
1.302796451E0,-5.449653864E-1,9.795618057E0,1.718644857E0
1.305032535E0,-5.353940725E-1,9.800403595E0,1.719243050E0
1.307269169E0,-5.449653864E-1,9.776474953E0,1.728216171E0
1.309505924E0,-5.401797295E-1,9.762118340E0,1.704886079E0
1.311742374E0,-5.210371017E-1,9.761520386E0,1.700100541E0
1.313978641E0,-5.162515044E-1,9.766305923E0,1.700100541E0
1.316214786E0,-5.120640397E-1,9.732806206E0,1.676172256E0
1.318453251E0,-5.018945336E-1,9.728020668E0,1.648056626E0
1.320688358E0,-4.929214716E-1,9.708877563E0,1.657627940E0
1.322925113E0,-4.785645306E-1,9.708877563E0,1.643270969E0
1.325160892E0,-4.785645306E-1,9.699306488E0,1.638485312E0
1.327397831E0,-4.689932466E-1,9.665806770E0,1.615155339E0
1.329634342E0,-4.785645306E-1,9.656235695E0,1.596012712E0
1.331870731E0,-4.600201547E-1,9.637093544E0,1.596012712E0
1.334105960E0,-4.504488707E-1,9.627521515E0,1.572084427E0
1.336338809E0,-4.600201547E-1,9.617950439E0,1.557727575E0
1.338581668E0,-4.313062727E-1,9.589237213E0,1.534397483E0
1.340816776E0,-4.169493318E-1,9.584450722E0,1.491326690E0
1.343054691E0,-3.978067636E-1,9.569496155E0,1.491924882E0
1.345289615E0,-3.930211067E-1,9.569496155E0,1.458425403E0
1.347526554E0,-3.834498227E-1,9.550353050E0,1.453639746E0
1.349763065E0,-3.547359705E-1,9.535996437E0,1.420738459E0
1.351999637E0,-3.595215976E-1,9.531210899E0,1.415952802E0
1.354233951E0,-3.302095234E-1,9.530612946E0,1.373480201E0
1.356460514E0,-3.116651475E-1,9.516255379E0,1.383051515E0
1.358708927E0,-3.062812984E-1,9.516255379E0,1.354337573E0
1.360945438E0,-2.919243574E-1,9.516255379E0,1.344766378E0
1.363184878E0,-2.919243574E-1,9.511469841E0,1.330409408E0
1.365418094E0,-2.823530734E-1,9.511469841E0,1.326221943E0
1.367651859E0,-3.062812984E-1,9.506684303E0,1.296909928E0
1.369875247E0,-2.871387303E-1,9.511469841E0,1.292722464E0
1.372110965E0,-2.919243574E-1,9.506684303E0,1.307079315E0
1.374364139E0,-3.104687333E-1,9.535996437E0,1.296909928E0
1.376603947E0,-3.254238665E-1,9.512067795E0,1.292124271E0
1.378841739E0,-3.296113312E-1,9.521639824E0,1.263410330E0
1.381073917E0,-3.343969584E-1,9.540781975E0,1.287338614E0
1.383310428E0,-3.487538993E-1,9.546165466E0,1.287338614E0
1.385546940E0,-3.678964674E-1,9.531808853E0,1.286740422E0
1.387783634E0,-3.822534084E-1,9.551549911E0,1.272383451E0
1.390021122E0,-3.625126183E-1,9.584450722E0,1.296311617E0
1.392256473E0,-3.864408433E-1,9.579665184E0,1.301097274E0
1.394493106E0,-4.103690982E-1,9.585049629E0,1.301097274E0
1.396729313E0,-4.061816335E-1,9.580264091E0,1.320239902E0
1.398961857E0,-4.205385745E-1,9.580264091E0,1.348355532E0
1.401186100E0,-4.253242314E-1,9.580264091E0,1.362712502E0
1.403438724E0,-4.067798555E-1,9.560523033E0,1.367498159E0
1.405675479E0,-4.211367965E-1,9.565906525E0,1.377069473E0
1.407917544E0,-4.211367965E-1,9.565906525E0,1.396211982E0
1.410149601E0,-4.259224236E-1,9.551549911E0,1.386640668E0
1.412385196E0,-4.211367965E-1,9.556335449E0,1.357926846E0
1.414621158E0,-4.025924206E-1,9.531808853E0,1.386640668E0
1.416857731E0,-4.073780477E-1,9.531808853E0,1.400997639E0
1.419094303E0,-4.025924206E-1,9.531808853E0,1.391426325E0
1.421330875E0,-4.019941986E-1,9.531808853E0,1.381855130E0
1.423567508E0,-3.930211067E-1,9.522237778E0,1.382453322E0
1.425802249E0,-3.786641955E-1,9.522237778E0,1.372882009E0
1.428029178E0,-3.403790295E-1,9.516255379E0,1.401595831E0
1.430276981E0,-3.355933726E-1,9.535398483E0,1.420738459E0
1.432513065E0,-3.260220885E-1,9.516255379E0,1.420738459E0
1.434752873E0,-3.355933726E-1,9.521040916E0,1.444666624E0
1.436985111E0,-3.068794906E-1,9.530014038E0,1.435693622E0
1.439218692E0,-2.925225794E-1,9.525228500E0,1.440479279E0
1.441459842E0,-3.116651475E-1,9.534799576E0,1.459023595E0
1.443697208E0,-3.116651475E-1,9.534799576E0,1.468594909E0
1.445933598E0,-3.074777126E-1,9.539586067E0,1.497308731E0
1.448169010E0,-2.979064286E-1,9.539586067E0,1.502094388E0
1.450405094E0,-2.931207716E-1,9.558130264E0,1.526022673E0
1.452641971E0,-2.925225794E-1,9.558130264E0,1.511665702E0
1.454878482E0,-2.931207716E-1,9.558130264E0,1.526022673E0
1.457114872E0,-3.068794906E-1,9.572486877E0,1.535593987E0
1.459351688E0,-3.260220885E-1,9.592227936E0,1.558923960E0
1.461588993E0,-3.116651475E-1,9.605986595E0,1.568495274E0
1.463824588E0,-3.212364316E-1,9.625128746E0,1.601994753E0
1.466060856E0,-3.212364316E-1,9.615557671E0,1.611566067E0
1.468297001E0,-3.164508045E-1,9.634700775E0,1.640279889E0
1.470534061E0,-3.260220885E-1,9.653842926E0,1.645065546E0
1.472770633E0,-3.302095234E-1,9.677771568E0,1.649851203E0
1.475007022E0,-3.355933726E-1,9.677771568E0,1.663609982E0
1.477243778E0,-3.499503136E-1,9.687342644E0,1.682752490E0
1.479481388E0,-3.786641955E-1,9.683155060E0,1.701296926E0
1.481717899E0,-4.025924206E-1,9.702297211E0,1.701296926E0
1.483954226E0,-4.313062727E-1,9.688538551E0,1.701296926E0
1.486194156E0,-4.504488707E-1,9.698708534E0,1.705484390E0
1.488425541E0,-4.648058116E-1,9.693922997E0,1.719841242E0
1.490662418E0,-4.887340367E-1,9.694520950E0,1.700698733E0
1.492897525E0,-4.935196638E-1,9.699306488E0,1.714457393E0
1.495135745E0,-5.126622319E-1,9.694520950E0,1.714457393E0
1.497373417E0,-5.126622319E-1,9.680164337E0,1.709671736E0
1.499608585E0,-5.180460811E-1,9.670592308E0,1.709671736E0
1.501842166E0,-5.036891699E-1,9.680164337E0,1.724028707E0
1.504069340E0,-5.228317380E-1,9.675378799E0,1.709671736E0
1.506315067E0,-5.222335458E-1,9.699306488E0,1.714457393E0
1.508542972E0,-4.983053207E-1,9.684949875E0,1.700100541E0
1.510794558E0,-4.983053207E-1,9.680164337E0,1.681556106E0
1.513024783E0,-4.887340367E-1,9.699306488E0,1.705484390E0
1.515256229E0,-4.737788737E-1,9.708279610E0,1.686341763E0
1.517500431E0,-4.833501875E-1,9.718449593E0,1.667199135E0
1.519736942E0,-4.594219327E-1,9.703494072E0,1.676770449E0
1.521976138E0,-4.737788737E-1,9.708279610E0,1.681556106E0
1.524206790E0,-4.450650215E-1,9.732208252E0,1.681556106E0
1.526434513E0,-4.546363056E-1,9.722636223E0,1.691127419E0
1.528683231E0,-4.498506486E-1,9.736993790E0,1.686341763E0
1.530916934E0,-4.354937077E-1,9.726823807E0,1.663011789E0
1.533148380E0,-4.301098585E-1,9.745966911E0,1.672582984E0
1.535392399E0,-3.870390654E-1,9.750154495E0,1.672582984E0
1.537629032E0,-4.013960063E-1,9.750752449E0,1.672582984E0
1.539868289E0,-3.631108403E-1,9.754940033E0,1.658824325E0
1.542102176E0,-3.146561682E-1,9.763913155E0,1.630708575E0
1.544338565E0,-3.194418252E-1,9.768698692E0,1.630110383E0
1.546575321E0,-3.002992272E-1,9.768099785E0,1.606780410E0
1.548811893E0,-3.044866920E-1,9.792626381E0,1.578066587E0
1.551049442E0,-3.140579760E-1,9.773484230E0,1.568495274E0
1.553285465E0,-3.086741269E-1,9.797411919E0,1.544566989E0
1.555521122E0,-2.943171859E-1,9.797411919E0,1.525424480E0
1.557757389E0,-2.991028428E-1,9.802198410E0,1.515853167E0
1.559993778E0,-3.224328458E-1,9.812367439E0,1.506281853E0
1.562230533E0,-3.128615618E-1,9.807581902E0,1.496710539E0
1.564466922E0,-3.272185028E-1,9.817152977E0,1.491924882E0
1.566704044E0,-3.367897868E-1,9.826724052E0,1.506281853E0
1.568942326E0,-3.565305769E-1,9.803394318E0,1.515853167E0
1.571180790E0,-3.511467278E-1,9.817750931E0,1.491924882E0
1.573412906E0,-3.607180119E-1,9.822537422E0,1.482353687E0
1.575649296E0,-3.750749528E-1,9.813564301E0,1.463211060E0
1.577885318E0,-3.942175210E-1,9.818349838E0,1.457827210E0
1.580122684E0,-4.031906128E-1,9.809376717E0,1.424327731E0
1.582359012E0,-4.462614357E-1,9.833304405E0,1.442872047E0
1.584595829E0,-4.701896608E-1,9.857831001E0,1.452443361E0
1.586833377E0,-5.174478889E-1,9.877572060E0,1.432702541E0
1.589068790E0,-5.844469070E-1,9.893125534E0,1.456032634E0
1.591305301E0,-6.125625968E-1,9.921838760E0,1.456032634E0
1.593541324E0,-6.658028960E-1,9.923035622E0,1.484148264E0
1.595778202E0,-6.939185858E-1,9.951749802E0,1.483550072E0
1.598011783E0,-7.226324677E-1,9.961918831E0,1.488335729E0
1.600236514E0,-7.609176040E-1,9.957731247E0,1.502094388E0
1.602476444E0,-7.806583643E-1,9.957731247E0,1.511665702E0
1.604725162E0,-8.087740541E-1,9.948758125E0,1.477568030E0
1.606963566E0,-8.141579032E-1,9.939187050E0,1.496710539E0
1.609200259E0,-8.093722463E-1,9.948758125E0,1.487139225E0
1.611433536E0,-8.141579032E-1,9.939187050E0,1.487139225E0
1.613670536E0,-8.237292171E-1,9.930213928E0,1.453639746E0
1.615906620E0,-7.902296782E-1,9.920044899E0,1.482951880E0
1.618143375E0,-7.758727670E-1,9.910472870E0,1.449452281E0
1.620379703E0,-7.471588850E-1,9.905089378E0,1.430907965E0
1.622617618E0,-7.088736892E-1,9.880562782E0,1.435693622E0
1.624853824E0,-6.993024349E-1,9.875777245E0,1.398006678E0
1.627089298E0,-6.753742099E-1,9.880562782E0,1.393221021E0
1.629325504E0,-6.323033571E-1,9.860821724E0,1.384247899E0
1.631561832E0,-6.035895348E-1,9.855438232E0,1.379462242E0
1.633798649E0,-5.700899959E-1,9.859625816E0,1.370489120E0
1.636034977E0,-5.365904570E-1,9.849455833E0,1.375274777E0
1.638271854E0,-5.126622319E-1,9.849455833E0,1.380658627E0
1.640509159E0,-4.935196638E-1,9.844072342E0,1.395015597E0
1.642744815E0,-4.983053207E-1,9.848857880E0,1.399801254E0
1.644981388E0,-4.648058116E-1,9.853045464E0,1.409372568E0
1.647217594E0,-4.654040039E-1,9.829116821E0,1.414158225E0
1.649453983E0,-4.701896608E-1,9.843474388E0,1.481157184E0
1.651690799E0,-4.468596280E-1,9.809376717E0,1.457229018E0
1.653927311E0,-4.803591371E-1,9.814760208E0,1.500299811E0
1.656164066E0,-4.851447940E-1,9.838688850E0,1.528415442E0
1.658401493E0,-5.186443329E-1,9.838688850E0,1.542772412E0
1.660636844E0,-5.623133183E-1,9.848857880E0,1.575673699E0
1.662870426E0,-6.053841114E-1,9.859027863E0,1.594218135E0
1.665094974E0,-6.394818425E-1,9.859625816E0,1.646261930E0
1.667336246E0,-6.580262184E-1,9.902696609E0,1.660618901E0
1.669582584E0,-6.717849374E-1,9.917053223E0,1.655235052E0
1.671822208E0,-7.004988194E-1,9.932008743E0,1.669592023E0
1.674058536E0,-7.004988194E-1,9.955936432E0,1.674377680E0
1.676293399E0,-7.292127013E-1,9.951749802E0,1.664208174E0
1.678528934E0,-7.286145091E-1,9.966106415E0,1.668993831E0
1.680765262E0,-7.764709592E-1,9.976275444E0,1.649851203E0
1.683001530E0,-7.812566161E-1,9.990633011E0,1.673181176E0
1.685238102E0,-8.099704385E-1,9.986445427E0,1.644467354E0
1.687474735E0,-8.153542876E-1,9.957731247E0,1.673181176E0
1.689711307E0,-8.153542876E-1,9.948160172E0,1.649253011E0
1.691948184E0,-8.201399446E-1,9.938589096E0,1.639681697E0
1.694181216E0,-8.297112584E-1,9.938589096E0,1.630110383E0
1.696403934E0,-8.105686903E-1,9.914660454E0,1.634896040E0
1.698657352E0,-7.968099117E-1,9.885947227E0,1.625923038E0
1.700890689E0,-7.968099117E-1,9.871589661E0,1.630708575E0
1.703122745E0,-7.872386575E-1,9.857233047E0,1.601994753E0
1.705366825E0,-7.974081635E-1,9.838089943E0,1.582852125E0
1.707603397E0,-7.878368497E-1,9.838089943E0,1.582852125E0
1.709843204E0,-7.776673436E-1,9.838089943E0,1.569093466E0
1.712077518E0,-7.824530005E-1,9.833304405E0,1.545165181E0
1.714312870E0,-7.830511928E-1,9.809376717E0,1.540379524E0
1.716549442E0,-7.585247755E-1,9.804591179E0,1.516451359E0
1.718785709E0,-7.639086246E-1,9.761520386E0,1.516451359E0
1.721022342E0,-7.549355626E-1,9.742377281E0,1.530808330E0
1.723258915E0,-7.405785918E-1,9.713663101E0,1.502692580E0
1.725495487E0,-7.507480979E-1,9.665806770E0,1.488335729E0
1.727732303E0,-9.272187948E-1,9.339186668E0,1.363310695E0
1.729968753E0,-1.068993568E0,9.040681839E0,1.171884894E0
1.732202457E0,-9.720842242E-1,9.182456970E0,1.301097274E0
1.734441227E0,-8.512466550E-1,9.290133476E0,1.363908887E0
1.736677616E0,-7.304090858E-1,9.369695663E0,1.374676585E0
1.738915042E0,-5.958128572E-1,9.434301376E0,1.413560033E0
1.741151004E0,-4.462614357E-1,9.513264656E0,1.462612867E0
1.743387394E0,-3.116651475E-1,9.591629982E0,1.545165181E0
1.745626590E0,-2.105683982E-1,9.666405678E0,1.607976794E0
1.747870243E0,-1.244267747E-1,9.707681656E0,1.684547186E0
1.750097049E0,-9.511470050E-2,9.754940033E0,1.737189293E0
1.752333316E0,-5.264209956E-2,9.759127617E0,1.780858278E0
1.754567508E0,-3.828516230E-2,9.734601021E0,1.785643935E0
1.756806522E0,-3.948157281E-2,9.686744690E0,1.804786444E0
1.759043094E0,-2.572284266E-2,9.658030510E0,1.838286042E0
1.761279422E0,-5.024927482E-2,9.567701340E0,1.790429592E0
1.763516239E0,-7.058826834E-2,9.510273933E0,1.823929071E0
1.765753848E0,-1.148554832E-1,9.424730301E0,1.823330879E0
1.767990299E0,-1.495514214E-1,9.377471924E0,1.823330879E0
1.770225223E0,-1.884347796E-1,9.330213547E0,1.822732687E0
1.772461796E0,-1.692921966E-1,9.301499367E0,1.813759565E0
1.774698307E0,-1.698904037E-1,9.282357216E0,1.837687731E0
1.776935245E0,-1.609173268E-1,9.258428574E0,1.842473388E0
1.779169681E0,-1.316052526E-1,9.267401695E0,1.837687731E0
1.781401004E0,-1.076770201E-1,9.276374817E0,1.857428551E0
1.783645633E0,-5.024927482E-2,9.294321060E0,1.871785522E0
1.785878971E0,-3.589234129E-2,9.308678627E0,1.872383714E0
1.788110355E0,1.734796353E-2,9.336793900E0,1.877169371E0
1.790353824E0,5.144568533E-2,9.355338097E0,1.872981906E0
1.792590397E0,6.580262631E-2,9.378668785E0,1.892124534E0
1.794829288E0,5.623133108E-2,9.397810936E0,1.901695848E0
1.797060611E0,5.623133108E-2,9.397810936E0,1.920240164E0
1.799288455E0,3.708875179E-2,9.422337532E0,1.929811478E0
1.801537479E0,3.589233849E-3,9.436694145E0,1.972284079E0
1.803773075E0,-3.948157281E-2,9.437292099E0,2.000399828E0
1.806012638E0,-8.793623000E-2,9.413962364E0,2.019542217E0
1.808246036E0,-1.549352705E-1,9.424730301E0,2.023729801E0
1.810482792E0,-2.225325108E-1,9.406186104E0,2.065604210E0
1.812719120E0,-2.715853751E-1,9.382855415E0,2.136790514E0
1.814955692E0,-3.296113312E-1,9.330811501E0,2.150549412E0
1.817192447E0,-3.834498227E-1,9.302696228E0,2.188236237E0
1.819429569E0,-4.079762697E-1,9.279366493E0,2.231307030E0
1.821665104E0,-4.133601189E-1,9.265008926E0,2.260020971E0
1.823901432E0,-4.420739710E-1,9.260223389E0,2.268994093E0
1.826134647E0,-4.618147612E-1,9.255437851E0,2.325823545E0
1.828361942E0,-4.761717021E-1,9.246464729E0,2.335394859E0
1.830611271E0,-4.761717021E-1,9.260223389E0,2.344966173E0
1.832847843E0,-4.905286431E-1,9.265607834E0,2.359323025E0
1.835087772E0,-4.911268353E-1,9.246464729E0,2.368894339E0
1.837321842E0,-4.480560422E-1,9.226723671E0,2.378465652E0
1.839558048E0,-4.145565331E-1,9.226125717E0,2.340778828E0
1.841791080E0,-3.906283081E-1,9.196813583E0,2.341377020E0
1.844018192E0,-3.816552162E-1,9.163313866E0,2.322234392E0
1.846266483E0,-3.631108403E-1,9.125029564E0,2.317448616E0
1.848502933E0,-3.343969584E-1,9.100502968E0,2.313261271E0
1.850742557E0,-3.200400174E-1,9.086145401E0,2.308475733E0
1.852976444E0,-2.961117923E-1,9.062217712E0,2.261217356E0
1.855213810E0,-2.392822653E-1,9.027522087E0,2.271386862E0
1.857449405E0,-2.201396823E-1,9.017950058E0,2.280958176E0
1.859685917E0,-1.872383654E-1,9.022137642E0,2.309672117E0
1.861922001E0,-1.489532143E-1,8.988039970E0,2.300698996E0
1.864157108E0,-1.058823988E-1,9.001200676E0,2.334796667E0
1.866388492E0,-5.802594870E-2,9.019744873E0,2.358724833E0
1.868631717E0,-1.016949583E-2,9.023932457E0,2.359323025E0
1.870868534E0,4.187439568E-3,9.023334503E0,2.373680115E0
1.873107486E0,3.708875179E-2,9.022735596E0,2.416750908E0
1.875341251E0,4.187439755E-2,9.022735596E0,2.431107759E0
1.877578006E0,5.144568533E-2,9.050851822E0,2.464607239E0
1.879814030E0,7.537391037E-2,9.050851822E0,2.483749866E0
1.882050663E0,6.101697683E-2,9.050851822E0,2.488535643E0
1.884287113E0,8.494520187E-2,9.045467377E0,2.502892494E0
1.886523563E0,9.870393574E-2,9.011968613E0,2.508276224E0
1.888760684E0,1.082752272E-1,9.025727272E0,2.522633314E0
1.890997928E0,1.328016520E-1,9.035298347E0,2.503490686E0
1.893233341E0,1.328016520E-1,9.059226990E0,2.522633314E0
1.895469852E0,1.238285750E-1,9.083154678E0,2.522633314E0
1.897706180E0,1.142572835E-1,9.111868858E0,2.508276224E0
1.899942997E0,9.571290761E-2,9.145966530E0,2.526820660E0
1.902177250E0,8.135596663E-2,9.145966530E0,2.545963287E0
1.904407535E0,5.742774159E-2,9.174679756E0,2.554936409E0
1.906652469E0,3.349951655E-2,9.189635277E0,2.593221426E0
1.908890262E0,1.016949583E-2,9.213563919E0,2.592623234E0
1.911128421E0,-1.854437590E-2,9.238089561E0,2.625524759E0
1.913361942E0,-3.349951655E-2,9.228518486E0,2.673381090E0
1.915598026E0,-3.828516230E-2,9.233304024E0,2.692523718E0
1.917834842E0,-3.828516230E-2,9.242277145E0,2.706880569E0
1.920071415E0,-1.016949583E-2,9.241679192E0,2.749951363E0
1.922307987E0,8.374879137E-3,9.241081238E0,2.802593470E0
1.924544559E0,2.273181453E-2,9.250652313E0,2.821736097E0
1.926782108E0,3.290131316E-2,9.297910690E0,2.850450039E0
1.929017399E0,2.751746029E-2,9.302696228E0,2.916850805E0
1.931253361E0,2.811566554E-2,9.326624870E0,2.940778971E0
1.933488407E0,5.204389244E-2,9.340383530E0,2.983849764E0
1.935727237E0,3.768695518E-2,9.369096756E0,3.017349243E0
1.937963810E0,6.161518395E-2,9.392427444E0,3.031706333E0
1.940200504E0,7.058826834E-2,9.363713264E0,3.060420275E0
1.942436588E0,6.101697683E-2,9.373284340E0,3.098107100E0
1.944673893E0,7.058826834E-2,9.377471924E0,3.098705292E0
1.946909488E0,9.451649338E-2,9.386445045E0,3.136990547E0
1.949146975E0,1.136590764E-1,9.391230583E0,3.127419233E0
1.951386539E0,1.178465188E-1,9.372088432E0,3.165704250E0
1.953618717E0,1.130608693E-1,9.381659508E0,3.160918713E0
1.955855411E0,1.082752272E-1,9.381659508E0,3.165704250E0
1.958091068E0,9.870393574E-2,9.381659508E0,3.146561861E0
1.960328861E0,8.015955985E-2,9.406186104E0,3.122633457E0
1.962566288E0,7.597211748E-2,9.420542717E0,3.131606579E0
1.964801395E0,2.811566554E-2,9.440283775E0,3.122035265E0
1.967035342E0,-1.016949583E-2,9.460023880E0,3.135794163E0
1.969262699E0,-1.914258115E-2,9.483952522E0,3.111865759E0
1.971510868E0,-8.554340899E-2,9.504291534E0,3.096910715E0
1.973747379E0,-1.328016520E-1,9.543174744E0,3.086741209E0
1.975986881E0,-1.806581169E-1,9.563513756E0,3.081357241E0
1.978220890E0,-2.231307179E-1,9.578469276E0,3.062214851E0
1.980458377E0,-2.703889608E-1,9.607781410E0,3.042474031E0
1.982694461E0,-2.847459018E-1,9.622735977E0,3.004188776E0
1.984930057E0,-3.224328458E-1,9.604191780E0,2.956332445E0
1.987166385E0,-3.511467278E-1,9.628718376E0,2.941377163E0
1.989402958E0,-3.601198196E-1,9.638289452E0,2.922234535E0
1.991639530E0,-3.690928817E-1,9.643673897E0,2.865405083E0
1.993876102E0,-3.732803464E-1,9.663414001E0,2.812762976E0
1.996108401E0,-3.732803464E-1,9.658628464E0,2.760120869E0
1.998332096E0,-3.678964674E-1,9.653842926E0,2.721835852E0
2.000585331E0,-3.487538993E-1,9.663414001E0,2.688934565E0
2.002822086E0,-3.242274821E-1,9.672985077E0,2.650649309E0
2.005060245E0,-3.140579760E-1,9.687342644E0,2.603390932E0
2.007282474E0,-2.751746178E-1,9.696315765E0,2.584846735E0
2.009517215E0,-2.506481707E-1,9.725028992E0,2.556132793E0
2.011756595E0,-2.165504545E-1,9.748359680E0,2.504088879E0
2.014007754E0,-1.680957973E-1,9.762118340E0,2.504088879E0
2.016245182E0,-1.537388563E-1,9.771689415E0,2.480758905E0
2.018480595E0,-1.052841991E-1,9.795019150E0,2.462214470E0
2.020714115E0,-7.118647546E-2,9.813564301E0,2.423929453E0
2.022950321E0,-4.725824669E-2,9.817750931E0,2.414956331E0
2.025187381E0,5.982056726E-3,9.826724052E0,2.405983210E0
2.027423710E0,1.076770201E-2,9.845867157E0,2.415554523E0
2.029660282E0,3.469592705E-2,9.845269203E0,2.405983210E0
2.031896915E0,5.922235921E-2,9.854840279E0,2.386840582E0
2.034134769E0,5.922235921E-2,9.850054741E0,2.391626120E0
2.036370243E0,6.400800496E-2,9.859625816E0,2.391626120E0
2.038606327E0,6.400800496E-2,9.850054741E0,2.391626120E0
2.040842350E0,3.469592705E-2,9.821938515E0,2.372483730E0
2.043079288E0,2.033899166E-2,9.826724052E0,2.358126640E0
2.045315494E0,-1.256231871E-2,9.817750931E0,2.329412937E0
2.047552188E0,-1.256231871E-2,9.817750931E0,2.300698996E0
2.049789127E0,-4.127619043E-2,9.799206734E0,2.291127682E0
2.052026554E0,-8.434699476E-2,9.781260490E0,2.242672920E0
2.054262882E0,-1.136590764E-1,9.747760773E0,2.266601324E0
2.056498356E0,-1.286142170E-1,9.714859962E0,2.266601324E0
2.058734501E0,-1.531406492E-1,9.700503349E0,2.266003132E0
2.060971073E0,-1.968096644E-1,9.667601585E0,2.299502611E0
2.063207828E0,-2.255235314E-1,9.668199539E0,2.327618122E0
2.065444217E0,-2.554338276E-1,9.639486313E0,2.384447813E0
2.067681034E0,-2.937189937E-1,9.640084267E0,2.407777786E0
2.069918338E0,-3.278166950E-1,9.635298729E0,2.469991207E0
2.072153995E0,-3.188436031E-1,9.654440880E0,2.526820660E0
2.074390506E0,-2.901297510E-1,9.648459435E0,2.574677229E0
2.076626591E0,-2.901297510E-1,9.653244972E0,2.598605394E0
2.078863407E0,-2.237289101E-1,9.642477036E0,2.613560438E0
2.081099979E0,-1.758724600E-1,9.637093544E0,2.609373093E0
2.083336551E0,-1.328016520E-1,9.626923561E0,2.586043119E0
2.085573184E0,-8.973085135E-2,9.612566948E0,2.557927370E0
2.087810672E0,-5.144568533E-2,9.583254814E0,2.539382935E0
2.090045963E0,-2.751746029E-2,9.563513756E0,2.505883455E0
2.092282352E0,1.196411322E-3,9.544371605E0,2.472982168E0
2.094518619E0,2.991028316E-2,9.510871887E0,2.444866419E0
2.096755436E0,5.383851007E-2,9.491130829E0,2.411366940E0
2.098988895E0,6.819544733E-2,9.486345291E0,2.378465652E0
2.101216739E0,1.058823988E-1,9.437891006E0,2.364108801E0
2.103465457E0,1.393819153E-1,9.390034676E0,2.321636200E0
2.105699527E0,1.680957973E-1,9.379864693E0,2.303091764E0
2.107928837E0,2.303091735E-1,9.360123634E0,2.265404940E0
2.110174381E0,2.446661144E-1,9.326624870E0,2.213361025E0
2.112410770E0,2.494517565E-1,9.302696228E0,2.170290232E0
2.114650638E0,3.068794906E-1,9.287740707E0,2.137388945E0
2.116884159E0,3.116651475E-1,9.268598557E0,2.104487419E0
2.119120426E0,2.973082066E-1,9.269196510E0,2.080559254E0
2.121357059E0,2.542374134E-1,9.250652313E0,2.046461582E0
2.123594791E0,1.968096644E-1,9.242277145E0,2.031506538E0
2.125830936E0,1.585244983E-1,9.214161873E0,1.974078655E0
2.128063602E0,6.699903309E-2,9.192028046E0,1.978266120E0
2.130290836E0,8.973085321E-3,9.154341698E0,1.958525300E0
2.132539188E0,-3.469592705E-2,9.116654396E0,1.977069736E0
2.134776004E0,-7.776673883E-2,9.084351540E0,1.962712765E0
2.137015568E0,-1.166501045E-1,9.046664238E0,1.953141451E0
2.139249454E0,-1.262213886E-1,9.032307625E0,1.929213285E0
2.141486759E0,-1.124626622E-1,8.994022369E0,1.895713687E0
2.143722293E0,-1.363908947E-1,8.989834785E0,1.886142492E0
2.145958561E0,-1.316052526E-1,8.985049248E0,1.886142492E0
2.148194645E0,-1.118644550E-1,9.027522087E0,1.876571178E0
2.150431461E0,-1.214357466E-1,8.999405861E0,1.876571178E0
2.152668094E0,-1.214357466E-1,9.018548965E0,1.866999865E0
2.154904728E0,-1.304088384E-1,9.047262192E0,1.871785522E0
2.157141544E0,-1.543370634E-1,9.052047729E0,1.875972986E0
2.159378788E0,-2.123630047E-1,9.043673515E0,1.899302959E0
2.161612308E0,-2.321037948E-1,9.048459053E0,1.961516380E0
2.163843387E0,-2.895315289E-1,9.063413620E0,2.008176327E0
2.166086979E0,-3.284149170E-1,9.053842545E0,2.041675806E0
2.168323612E0,-3.720839322E-1,9.054440498E0,2.122433662E0
2.170562015E0,-3.816552162E-1,9.064012527E0,2.164906263E0
2.172796756E0,-3.918247223E-1,9.054440498E0,2.217548370E0
2.175033634E0,-4.115654826E-1,9.059226990E0,2.279163599E0
2.177270877E0,-3.828516304E-1,9.072386742E0,2.336591244E0
2.179506168E0,-3.780659735E-1,9.110671997E0,2.370090723E0
2.181742496E0,-3.637090325E-1,9.090931892E0,2.384447813E0
2.183978885E0,-3.248256743E-1,9.147761345E0,2.394019127E0
2.186213016E0,-3.152543902E-1,9.171689034E0,2.398804665E0
2.188440616E0,-3.152543902E-1,9.152546883E0,2.385046005E0
2.190688846E0,-3.774677813E-1,9.134600639E0,2.389233351E0
2.192925357E0,-4.642075896E-1,9.140582085E0,2.397608280E0
2.195165958E0,-5.413761139E-1,9.103493690E0,2.406581402E0
2.197399540E0,-6.233302951E-1,9.052047729E0,2.401197433E0
2.199630802E0,-6.717849374E-1,9.019146919E0,2.410170555E0
2.201854618E0,-7.537391186E-1,8.977272034E0,2.376072884E0
2.204106022E0,-8.069794178E-1,8.921041489E0,2.371287346E0
2.206338504E0,-8.219345808E-1,8.897112846E0,2.352144718E0
2.208585025E0,-8.745766878E-1,8.893523216E0,2.346760750E0
2.210817508E0,-9.176474810E-1,8.884550095E0,2.331805706E0
2.213056217E0,-9.553344250E-1,8.894720078E0,2.298306227E0
2.215290165E0,-9.696913958E-1,8.876175880E0,2.288734913E0
2.217526981E0,-1.027119160E0,8.877371788E0,2.240280151E0
2.219763126E0,-1.079162955E0,8.887541771E0,2.197209358E0
2.222000126E0,-1.117448211E0,8.883952141E0,2.139183521E0
2.224233219E0,-1.155135155E0,8.879764557E0,2.110469580E0
2.226461124E0,-1.178465128E0,8.875576973E0,2.019542217E0
2.228706729E0,-1.207777262E0,8.837890625E0,2.024327993E0
2.230934696E0,-1.221535921E0,8.833703041E0,1.938186288E0
2.233185245E0,-1.231107235E0,8.815158844E0,1.885544300E0
2.235419010E0,-1.235892892E0,8.805587769E0,1.838286042E0
2.237658206E0,-1.211366415E0,8.796015739E0,1.743171334E0
2.239891971E0,-1.205384374E0,8.815756798E0,1.685743570E0
2.242128238E0,-1.209571838E0,8.820542336E0,1.609173179E0
2.244364933E0,-1.208973646E0,8.845068932E0,1.528415442E0
2.246601932E0,-1.194018483E0,8.864211082E0,1.485344648E0
2.248838993E0,-1.169492126E0,8.840283394E0,1.418943882E0
2.251074344E0,-1.145563841E0,8.835497856E0,1.357328653E0
2.253310856E0,-1.121037364E0,8.811569214E0,1.305284739E0
2.255547245E0,-1.097109199E0,8.787042618E0,1.266999602E0
2.257784061E0,-1.058824062E0,8.777471542E0,1.238883972E0
2.260020450E0,-9.966106415E-1,8.752346992E0,1.201196909E0
2.262257206E0,-9.678967595E-1,8.742775917E0,1.153938770E0
2.264493778E0,-9.194421172E-1,8.737391472E0,1.116251707E0
2.266728458E0,-8.709874153E-1,8.760722160E0,1.073779106E0
2.268955814E0,-8.225327730E-1,8.765507698E0,1.012163997E0
2.271202762E0,-7.842476368E-1,8.750552177E0,9.696913958E-1
2.273439335E0,-7.310073376E-1,8.769096375E0,9.415757060E-1
2.275678836E0,-7.064808607E-1,8.787641525E0,9.128618240E-1
2.277912662E0,-7.010970116E-1,8.801998138E0,8.943174481E-1
2.280148563E0,-7.100701332E-1,8.826524734E0,8.464609981E-1
2.282385868E0,-7.196413875E-1,8.821739197E0,8.512466550E-1
2.284623111E0,-7.525427341E-1,8.851051331E0,8.315058947E-1
2.286858646E0,-8.105686903E-1,8.832506180E0,8.691928387E-1
2.289095096E0,-8.829515576E-1,8.833703041E0,8.877372146E-1
2.291331424E0,-9.451649189E-1,8.858229637E0,9.062815905E-1
2.293568241E0,-1.012163997E0,8.854640007E0,9.577272534E-1
2.295804508E0,-1.098903775E0,8.870193481E0,1.009771109E0
2.298040836E0,-1.185045362E0,8.895318031E0,1.027717352E0
2.300277713E0,-1.237687469E0,8.928817749E0,1.079761267E0
2.302515262E0,-1.319043517E0,8.934800148E0,1.121635556E0
2.304750675E0,-1.371685624E0,8.949754715E0,1.154536963E0
2.306987308E0,-1.429711580E0,8.964710236E0,1.201795220E0
2.309223697E0,-1.491924882E0,8.970691681E0,1.229910851E0
2.311460086E0,-1.559522152E0,8.956933022E0,1.234098315E0
2.313696659E0,-1.583450437E0,8.952746391E0,1.234098315E0
2.315933170E0,-1.616949916E0,8.958129883E0,1.247856975E0
2.318170108E0,-1.621735573E0,8.943773270E0,1.223928809E0
2.320407474E0,-1.602592945E0,8.943773270E0,1.195813060E0
2.322643131E0,-1.606780410E0,8.953344345E0,1.147956610E0
2.324879032E0,-1.576870084E0,8.991629601E0,1.076171994E0
2.327115604E0,-1.556531072E0,9.015557289E0,1.024128079E0
2.329352298E0,-1.550549030E0,9.063413620E0,9.146564603E-1
2.331588810E0,-1.539781332E0,9.073583603E0,8.093722463E-1
2.333825260E0,-1.552941918E0,9.102895737E0,6.855437160E-1
2.336061893E0,-1.585245013E0,9.094520569E0,5.467599630E-1
2.338299747E0,-1.603789330E0,9.095717430E0,4.085744619E-1
2.340536014E0,-1.616949916E0,9.081958771E0,2.793620527E-1
2.342771427E0,-1.625923038E0,9.068798065E0,1.363908947E-1
2.345007694E0,-1.628913999E0,9.102895737E0,1.734796353E-2
2.347244205E0,-1.613958836E0,9.088538170E0,-7.776673883E-2
2.349478213E0,-1.594218135E0,9.102895737E0,-1.686939895E-1
2.351706852E0,-1.564906001E0,9.112466812E0,-2.255235314E-1
2.353953922E0,-1.530210137E0,9.160323143E0,-2.679961324E-1
2.356191349E0,-1.515254974E0,9.178867340E0,-3.110669553E-1
2.358429751E0,-1.466800332E0,9.187840462E0,-3.391826153E-1
2.360663517E0,-1.447657704E0,9.221340179E0,-3.248256743E-1
2.362899784E0,-1.413560033E0,9.259027481E0,-2.913261652E-1
2.365136295E0,-1.374676585E0,9.305686951E0,-2.524427772E-1
2.367372928E0,-1.336989641E0,9.309874535E0,-2.093719840E-1
2.369609501E0,-1.317847013E0,9.352347374E0,-1.088734269E-1
2.371846378E0,-1.284945726E0,9.351150513E0,-5.623133108E-2
2.374083683E0,-1.270588875E0,9.374481201E0,3.888336942E-2
2.376319278E0,-1.256830096E0,9.388239861E0,1.345962733E-1
2.378554630E0,-1.243071318E0,9.411569595E0,2.111666054E-1
2.380787174E0,-1.234098315E0,9.415757179E0,3.110669553E-1
2.383028385E0,-1.239482164E0,9.443872452E0,4.205385745E-1
2.385264957E0,-1.249651670E0,9.458230019E0,5.347958803E-1
2.387502750E0,-1.230509043E0,9.485747337E0,6.352944374E-1
2.389738468E0,-1.216750264E0,9.518648148E0,7.357929349E-1
2.391975772E0,-1.202393413E0,9.546764374E0,8.261220455E-1
2.394208316E0,-1.208375454E0,9.560523033E0,9.786644578E-1
2.396435611E0,-1.185045362E0,9.578469276E0,1.098305583E0
2.398683658E0,-1.156929731E0,9.592227936E0,1.194018483E0
2.400920475E0,-1.147358418E0,9.620343208E0,1.274776220E0
2.403160099E0,-1.152742267E0,9.629316330E0,1.356132269E0
2.405393741E0,-1.162911773E0,9.648459435E0,1.427318692E0
2.407630557E0,-1.153340459E0,9.686145782E0,1.498505235E0
2.409868106E0,-1.153340459E0,9.699904442E0,1.555932879E0
2.412104374E0,-1.177866936E0,9.695717812E0,1.603191137E0
2.414339725E0,-1.168295622E0,9.719047546E0,1.660618901E0
2.416575992E0,-1.207179070E0,9.705288887E0,1.707877159E0
2.418812321E0,-1.236491084E0,9.710074425E0,1.769492388E0
2.421049198E0,-1.250848055E0,9.705288887E0,1.764706731E0
2.423285770E0,-1.260419369E0,9.724431038E0,1.807777524E0
2.425522647E0,-1.299302697E0,9.720243454E0,1.864607096E0
2.427759830E0,-1.319043517E0,9.720243454E0,1.887937069E0
2.429994999E0,-1.366899967E0,9.735198975E0,1.939980984E0
2.432231754E0,-1.391426325E0,9.739984512E0,2.011167526E0
2.434467899E0,-1.405783296E0,9.763913155E0,2.035095692E0
2.436705021E0,-1.410568953E0,9.792626381E0,2.082952023E0
2.438941288E0,-1.409970760E0,9.825528145E0,2.115853310E0
2.441177921E0,-1.381256819E0,9.858428955E0,2.173281193E0
2.443414615E0,-1.375872970E0,9.896714211E0,2.197209358E0
2.445647342E0,-1.332802176E0,9.924231529E0,2.245065928E0
2.447869693E0,-1.289731383E0,9.937990189E0,2.269592285E0
2.450123661E0,-1.250848055E0,9.985248566E0,2.269592285E0
2.452360233E0,-1.207777262E0,1.000798035E1,2.298904419E0
2.454601199E0,-1.188036442E0,1.006540871E1,2.308475733E0
2.456833438E0,-1.182652593E0,1.009352398E1,2.351546526E0
2.459069889E0,-1.182652593E0,1.012223816E1,2.403590441E0
2.461306583E0,-1.192223907E0,1.014138031E1,2.413161755E0
2.463544071E0,-1.197607756E0,1.013659477E1,2.437089920E0
2.465779361E0,-1.197607756E0,1.013659477E1,2.446661234E0
2.468015812E0,-1.216152072E0,1.015573788E1,2.455634356E0
2.470252262E0,-1.226321578E0,1.014138031E1,2.460419893E0
2.472488895E0,-1.255035520E0,1.013240719E1,2.474776745E0
2.474725528E0,-1.284347534E0,1.012821960E1,2.498106956E0
2.476961979E0,-1.351346612E0,1.012881851E1,2.511865616E0
2.479198673E0,-1.403988719E0,1.012463093E1,2.535195589E0
2.481435673E0,-1.423729420E0,1.012044334E1,2.539981127E0
2.483669498E0,-1.471585870E0,1.010668468E1,2.501097918E0
2.485907779E0,-1.495514154E0,1.008335495E1,2.462812662E0
2.488143863E0,-1.528415442E0,1.006062317E1,2.386242390E0
2.490381473E0,-1.552343726E0,1.004686451E1,2.333600283E0
2.492617618E0,-1.542772412E0,1.001815033E1,2.252842426E0
2.494854190E0,-1.499103427E0,9.984650612E0,2.162513494E0
2.497090763E0,-1.460219979E0,9.970293999E0,2.039283037E0
2.499328251E0,-1.396810174E0,9.979267120E0,1.934597135E0
2.501563602E0,-1.328614831E0,9.993025780E0,1.830509305E0
2.503800174E0,-1.284347534E0,1.001695347E1,1.697109461E0
2.506036258E0,-1.225723386E0,1.002173901E1,1.540379524E0
2.508270450E0,-1.185643673E0,1.004088211E1,1.406979680E0
2.510498111E0,-1.164706469E0,1.008455086E1,1.240678549E0
2.512746952E0,-1.158126116E0,1.008993530E1,1.059422255E0
2.514983768E0,-1.166501045E0,1.010548782E1,8.829515576E-1
2.517211552E0,-1.202991605E0,1.011147022E1,7.010970116E-1
2.519455997E0,-1.230509043E0,1.011745262E1,5.581258535E-1
2.521691287E0,-1.296909928E0,1.010010433E1,3.954139352E-1
2.523931216E0,-1.329213023E0,1.010608673E1,2.614158690E-1
2.526165104E0,-1.395015597E0,1.011266708E1,1.417747438E-1
2.528401676E0,-1.432702541E0,1.009472084E1,2.213360928E-2
2.530638065E0,-1.479960799E0,1.008634567E1,-9.272187948E-2
2.532874942E0,-1.512862086E0,1.006780148E1,-1.692921966E-1
2.535112430E0,-1.540977836E0,1.007797050E1,-2.315055877E-1
2.537347782E0,-1.564307809E0,1.007438183E1,-3.080759048E-1
2.539584110E0,-1.626521230E0,1.008455086E1,-3.421736360E-1
2.541820377E0,-1.636092424E0,1.006122112E1,-3.900300860E-1
2.544057254E0,-1.664806366E0,1.006181908E1,-4.139583111E-1
2.546293888E0,-1.698305845E0,1.004806042E1,-4.331009090E-1
2.548530399E0,-1.722234130E0,1.004387283E1,-4.384847581E-1
2.550767032E0,-1.718046665E0,1.000080204E1,-4.384847581E-1
2.553004825E0,-1.709073544E0,9.961918831E0,-4.187439680E-1
2.555241092E0,-1.680359721E0,9.951749802E0,-3.948157430E-1
2.557476444E0,-1.652244091E0,9.927821159E0,-4.133601189E-1
2.559712467E0,-1.590628862E0,9.883553505E0,-4.031906128E-1
2.561949039E0,-1.567298889E0,9.873384476E0,-3.601198196E-1
2.564183597E0,-1.529611826E0,9.848857880E0,-3.218346536E-1
2.566413211E0,-1.501496196E0,9.819545746E0,-2.739782035E-1
2.568659061E0,-1.482951880E0,9.780662537E0,-2.356930375E-1
2.570896366E0,-1.446461320E0,9.736993790E0,-1.441675574E-1
2.573134280E0,-1.409372568E0,9.668798447E0,-6.759724021E-2
2.575368534E0,-1.372882009E0,9.601201057E0,1.854437590E-2
2.577604557E0,-1.345364571E0,9.566504478E0,9.511470050E-2
2.579841190E0,-1.322632670E0,9.508479118E0,2.099701911E-1
2.582077945E0,-1.281356573E0,9.454640388E0,2.817548811E-1
2.584314396E0,-1.248455167E0,9.420542717E0,3.637090325E-1
2.586551517E0,-1.197009563E0,9.385847092E0,4.402793646E-1
2.588788700E0,-1.122233868E0,9.336195946E0,5.461617708E-1
2.591024112E0,-1.051645517E0,9.277571678E0,6.370890141E-1
2.593257755E0,-9.906286001E-1,9.252447128E0,7.190431952E-1
2.595482425E0,-9.008977413E-1,9.212367058E0,8.201399446E-1
2.597718692E0,-8.021938205E-1,9.152546883E0,9.499505758E-1
2.599958683E0,-7.316055298E-1,9.127422333E0,1.045663476E0
2.602209721E0,-6.323033571E-1,9.067601204E0,1.161117196E0
2.604446293E0,-5.575276613E-1,9.013164520E0,1.295713425E0
2.606683658E0,-4.630111754E-1,8.987442017E0,1.411167145E0
2.608916080E0,-4.031906128E-1,8.913862228E0,1.545165181E0
2.611152713E0,-3.188436031E-1,8.845068932E0,1.665404558E0
2.613388737E0,-2.195414752E-1,8.838488579E0,1.804188251E0
2.615625553E0,-1.399801224E-1,8.784051895E0,1.962712765E0
2.617861881E0,-3.110669367E-2,8.757730484E0,2.116451740E0
2.620098514E0,6.759724021E-2,8.740981102E0,2.298306227E0
2.622335330E0,1.615155339E-1,8.719446182E0,2.480160713E0
2.624572940E0,2.512463629E-1,8.726624489E0,2.643470764E0
2.626809208E0,3.176472187E-1,8.743971825E0,2.820539713E0
2.629044620E0,4.067798555E-1,8.732007980E0,3.021536827E0
2.631280705E0,4.725824594E-1,8.749356270E0,3.236292601E0
2.633512760E0,5.330012441E-1,8.746963501E0,3.437289715E0
2.635742374E0,5.700899959E-1,8.779266357E0,3.671188116E0
2.637990787E0,6.071787477E-1,8.796614647E0,3.867399693E0
2.640227908E0,6.490531564E-1,8.828319550E0,4.058227062E0
2.642467899E0,6.664010882E-1,8.831908226E0,4.258625984E0
2.644700016E0,6.993024349E-1,8.878568649E0,4.420739651E0
2.646936649E0,7.220342159E-1,8.877371788E0,4.588237286E0
2.649172916E0,7.262216806E-1,8.900702477E0,4.750350952E0
2.651409854E0,7.202396393E-1,8.904889107E0,4.902893543E0
2.653646427E0,7.100701332E-1,8.923434258E0,5.021936417E0
2.655882999E0,7.094719410E-1,8.956335068E0,5.164907455E0
2.658119754E0,7.082754970E-1,8.946166039E0,5.269593716E0
2.660357730E0,7.124629617E-1,8.950352669E0,5.360520840E0
2.662596012E0,6.927221417E-1,8.959924698E0,5.417350292E0
2.664828678E0,6.879364848E-1,8.955139160E0,5.450850010E0
2.667065128E0,6.975077987E-1,8.945567131E0,5.402993679E0
2.669301211E0,6.981059909E-1,8.964710236E0,5.365306377E0
2.671538517E0,6.837490797E-1,8.950951576E0,5.312664509E0
2.673775089E0,6.891329288E-1,8.941379547E0,5.260022163E0
2.676011844E0,6.945167780E-1,8.946763992E0,5.160121918E0
2.678249088E0,7.052844763E-1,8.947361946E0,5.059623718E0
2.680483462E0,7.010970116E-1,8.956933022E0,4.993222713E0
2.682717838E0,6.975077987E-1,8.962317467E0,4.855037212E0
2.684957096E0,6.981059909E-1,8.967700958E0,4.768895626E0
2.687194034E0,6.945167780E-1,8.963513374E0,4.645066738E0
2.689431338E0,7.004988194E-1,8.988039970E0,4.526023865E0
2.691667118E0,7.208378315E-1,9.011968613E0,4.420739651E0
2.693903690E0,7.076773047E-1,9.037093163E0,4.316053867E0
2.696141300E0,7.519445419E-1,9.060422897E0,4.206582069E0
2.698374820E0,7.770691514E-1,9.089137077E0,4.106681824E0
2.700601200E0,8.165507317E-1,9.127422333E0,4.030709743E0
2.702849247E0,8.560323119E-1,9.198608398E0,3.997808456E0
2.705085758E0,9.002995491E-1,9.232108116E0,3.940380573E0
2.707325626E0,9.541380405E-1,9.288937569E0,3.878765583E0
2.709556217E0,9.840483069E-1,9.345767021E0,3.817150354E0
2.711783817E0,9.996016622E-1,9.393623352E0,3.755535126E0
2.714033085E0,1.029511929E0,9.446265221E0,3.683750391E0
2.716268741E0,1.007378340E0,9.494720459E0,3.611965895E0
2.718508549E0,1.027119160E0,9.513862610E0,3.550350666E0
2.720741581E0,1.008574724E0,9.514460564E0,3.468994617E0
2.722978092E0,9.906286001E-1,9.562915802E0,3.387638569E0
2.725214420E0,9.864411354E-1,9.558728218E0,3.316452265E0
2.727448306E0,1.006780148E0,9.601799011E0,3.263810158E0
2.729676151E0,1.003190875E0,9.640682220E0,3.192025423E0
2.731925235E0,1.018744230E0,9.688538551E0,3.125624657E0
2.734158206E0,1.019940615E0,9.741181374E0,3.053839922E0
2.736390079E0,1.025922656E0,9.789635658E0,2.953939438E0
2.738633671E0,1.027119160E0,9.818349838E0,2.877369165E0
2.740870243E0,1.018744230E0,9.862018585E0,2.791227579E0
2.743109378E0,1.006181955E0,9.915258408E0,2.691327333E0
2.745343387E0,9.930213690E-1,9.949356079E0,2.586043119E0
2.747580204E0,9.373882413E-1,9.989436150E0,2.442473650E0
2.749817264E0,8.853443861E-1,9.985847473E0,2.303689957E0
2.752052860E0,8.105686903E-1,1.002114105E1,2.173879385E0
2.754289432E0,7.256234884E-1,1.002831936E1,2.015953064E0
2.756525760E0,6.454638839E-1,1.006361389E1,1.881955028E0
2.758762333E0,5.659025311E-1,1.009412193E1,1.761715651E0
2.760998905E0,4.516452849E-1,1.011505985E1,1.655833244E0
2.763235416E0,3.619144261E-1,1.014556789E1,1.573879123E0
2.765469669E0,2.482553422E-1,1.019103146E1,1.500898004E0
2.767700077E0,1.345962733E-1,1.025025368E1,1.433300734E0
2.769945926E0,1.076770201E-2,1.029093170E1,1.374676585E0
2.772181522E0,-8.374879509E-2,1.035434151E1,1.387837172E0
2.774419986E0,-1.788634956E-1,1.039860916E1,1.377667665E0
2.776654117E0,-2.841476798E-1,1.043868923E1,1.371685624E0
2.778890751E0,-3.744767308E-1,1.048774147E1,1.371087432E0
2.781127628E0,-4.552344978E-1,1.052722359E1,1.389033556E0
2.783364444E0,-4.205385745E-1,1.060319519E1,1.384846091E0
2.785598148E0,-5.306084156E-1,1.062413216E1,1.398006678E0
2.787822635E0,-7.609176040E-1,1.057986546E1,1.371685624E0
2.790073551E0,-9.571290612E-1,1.058285618E1,1.332203984E0
2.792309635E0,-1.082154036E0,1.054217815E1,1.316650629E0
2.794546268E0,-1.168295622E0,1.054337502E1,1.301695466E0
2.796767643E0,-1.268794179E0,1.053559780E1,1.281356573E0
2.799019413E0,-1.316650629E0,1.052662468E1,1.238285661E0
2.801256351E0,-1.383051515E0,1.051825047E1,1.199402332E0
2.803497867E0,-1.420738459E0,1.055773163E1,1.146760225E0
2.805729190E0,-1.506281853E0,1.057807064E1,1.088734269E0
2.807965702E0,-1.562513232E0,1.060319519E1,1.021137118E0
2.810201725E0,-1.658226132E0,1.060020447E1,9.583254457E-1
2.812438907E0,-1.739582062E0,1.057807064E1,8.955138922E-1
2.814675418E0,-1.815554142E0,1.055533886E1,8.141579032E-1
2.816911808E0,-1.892722726E0,1.050449181E1,7.417750359E-1
2.819148563E0,-1.950150490E0,1.046261692E1,6.939185858E-1
2.821385807E0,-2.021935225E0,1.042074299E1,6.263213158E-1
2.823621219E0,-2.050648928E0,1.039741230E1,5.784648657E-1
2.825857792E0,-2.036292076E0,1.038784122E1,5.545366406E-1
2.828094120E0,-2.007578135E0,1.038784122E1,5.024927258E-1
2.830326847E0,-1.969292998E0,1.035852909E1,4.935196638E-1
2.832550846E0,-1.896910191E0,1.034836006E1,4.414757788E-1
2.834803592E0,-1.815554142E0,1.033280659E1,4.235295951E-1
2.837040653E0,-1.710868239E0,1.029751205E1,4.336991012E-1
2.839282352E0,-1.615753531E0,1.026760197E1,4.492524564E-1
2.841514591E0,-1.506880045E0,1.020359421E1,4.743770957E-1
2.843749820E0,-1.445264935E0,1.014496994E1,4.797609448E-1
2.845985966E0,-1.374676585E0,1.008156013E1,5.090730190E-1
2.848222721E0,-1.308874011E0,9.999007225E0,5.623133183E-1
2.850459354E0,-1.238883972E0,9.926026344E0,6.532405615E-1
2.852695987E0,-1.198205948E0,9.819545746E0,7.686942816E-1
2.854932743E0,-1.143171072E0,9.741181374E0,9.122636318E-1
2.857170047E0,-1.112064362E0,9.649655342E0,1.055832982E0
2.859402408E0,-1.086341500E0,9.556933403E0,1.241874933E0
2.861630008E0,-1.045663476E0,9.483952522E0,1.433300734E0
2.863878238E0,-1.014556766E0,9.415159225E0,1.657627940E0
2.866112491E0,-9.786644578E-1,9.366106033E0,1.887338877E0
2.868344913E0,-9.678967595E-1,9.302098274E0,2.158924341E0
2.870588016E0,-9.559326172E-1,9.257830620E0,2.402393818E0
2.872824893E0,-9.487541914E-1,9.218349457E0,2.684148788E0
2.875064517E0,-9.565308690E-1,9.174081802E0,2.941377163E0
2.877297489E0,-9.397810698E-1,9.124430656E0,3.184846878E0
2.879534061E0,-9.326026440E-1,9.094520569E0,3.447459221E0
2.881769107E0,-9.349954724E-1,9.045467377E0,3.656831264E0
2.884002140E0,-9.086744189E-1,8.996415138E0,3.872185230E0
2.886243778E0,-8.823533654E-1,8.937790871E0,4.048655987E0
2.888480106E0,-8.416753411E-1,8.869595528E0,4.192225456E0
2.890718204E0,-7.860422134E-1,8.801400185E0,4.321437836E0
2.892954166E0,-7.256234884E-1,8.742177963E0,4.432105541E0
2.895189579E0,-6.693921089E-1,8.702695847E0,4.542175770E0
2.897427372E0,-6.041877270E-1,8.638688087E0,4.657629490E0
2.899667301E0,-5.527420044E-1,8.575876236E0,4.738985062E0
2.901899051E0,-4.725824594E-1,8.540582657E0,4.811367989E0
2.904134647E0,-4.067798555E-1,8.501100540E0,4.902893543E0
2.906367069E0,-3.499503136E-1,8.480761528E0,4.912465096E0
2.908609073E0,-2.733799815E-1,8.474779129E0,4.923232555E0
2.910846561E0,-2.159522474E-1,8.459824562E0,4.928018093E0
2.913083621E0,-1.489532143E-1,8.449056625E0,4.900500774E0
2.915318302E0,-9.571290761E-2,8.448458672E0,4.843671322E0
2.917554813E0,-7.118647546E-2,8.438887596E0,4.791627407E0
2.919791202E0,-4.187439755E-2,8.438887596E0,4.710271358E0
2.922027958E0,-1.734796353E-2,8.448458672E0,4.619942188E0
2.924264225E0,7.776673418E-3,8.448458672E0,4.510470867E0
2.926497684E0,3.708875179E-2,8.434102058E0,4.406383038E0
2.928724674E0,4.785645381E-2,8.439485550E0,4.249054909E0
2.930973758E0,5.922235921E-2,8.468797684E0,4.106083870E0
2.933210331E0,1.082752272E-1,8.487939835E0,3.977469444E0
2.935450077E0,1.046859920E-1,8.498109818E0,3.829712629E0
2.937683475E0,1.208375469E-1,8.532207489E0,3.686741590E0
2.939919864E0,1.076770201E-1,8.523832321E0,3.529413462E0
2.942156620E0,1.184447184E-1,8.553144455E0,3.386442184E0
2.944393253E0,1.387837082E-1,8.567501068E0,3.243471146E0
2.946630741E0,1.016949639E-1,8.559126854E0,3.085544825E0
2.948865787E0,1.124626622E-1,8.536395073E0,2.918645382E0
2.951102420E0,7.477571070E-2,8.504091263E0,2.761317253E0
2.953338688E0,8.075776696E-2,8.475975990E0,2.599203587E0
2.955575626E0,7.657032460E-2,8.434102058E0,2.417947292E0
2.957812137E0,6.699903309E-2,8.377271652E0,2.284547329E0
2.960048526E0,7.238288224E-2,8.339585304E0,2.146361828E0
2.962285526E0,8.853443712E-2,8.335397720E0,1.969891191E0
2.964522769E0,9.870393574E-2,8.292924881E0,1.794018745E0
2.966758915E0,1.190429255E-1,8.307880402E0,1.641476393E0
2.968994449E0,1.489532143E-1,8.279764175E0,1.469791293E0
2.971230839E0,1.980060786E-1,8.294121742E0,1.322632670E0
2.973467472E0,2.237289101E-1,8.318049431E0,1.136590719E0
2.975702030E0,2.542374134E-1,8.313861847E0,9.702895880E-1
2.977931766E0,3.272185028E-1,8.341978073E0,8.135597110E-1
2.980177432E0,3.577269912E-1,8.366504669E0,6.849454641E-1
2.982415225E0,4.025924206E-1,8.414361000E0,5.473581553E-1
2.984653751E0,5.288137794E-1,8.484351158E0,4.767699242E-1
2.986886844E0,4.085744619E-1,8.410173416E0,3.756731451E-1
2.989122867E0,2.315055877E-1,8.356334686E0,2.309073806E-1
2.991359379E0,1.555334777E-1,8.338388443E0,1.250249892E-1
2.993596012E0,1.220339537E-1,8.315656662E0,5.324030295E-2
2.995832645E0,9.810572863E-2,8.311469078E0,3.888336942E-2
2.998069461E0,2.213360928E-2,8.327022552E0,0.000000000E0
3.000306888E0,-4.007977992E-2,8.328219414E0,-1.974078640E-2
3.002542606E0,-1.208375469E-1,8.358129501E0,-3.948157281E-2
3.004775821E0,-2.255235314E-1,8.411968231E0,-7.178467698E-3
3.007000675E0,-3.104687333E-1,8.499305725E0,1.794616925E-3
3.009237430E0,-4.001995921E-1,8.586644173E0,1.495514158E-2
3.011477054E0,-7.040880919E-1,9.099904060E0,-1.280758262E0
3.013728152E0,3.373879790E-1,9.662218094E0,-4.114458561E0
3.015964786E0,9.954141974E-1,9.248857498E0,-5.690730572E0
3.018202213E0,-7.651050687E-1,8.264211655E0,-2.315055847E0
3.020434391E0,-2.053041935E0,7.885547161E0,-8.015955985E-2
3.022671024E0,-2.513062000E0,7.993822098E0,6.831508875E-1
3.024907291E0,-2.650051117E0,8.300103188E0,1.015154958E0
3.027144168E0,-2.536990166E0,8.575278282E0,1.134796143E0
3.029380436E0,-2.224726915E0,8.877371788E0,9.750752449E-1
3.031616764E0,-1.810768485E0,9.154939651E0,6.969096065E-1
3.033853580E0,-1.359721422E0,9.388239861E0,4.049852192E-1
3.036090946E0,-1.045065284E0,9.546764374E0,2.889333367E-1
3.038326603E0,-7.944171429E-1,9.643673897E0,2.907279432E-1
3.040563114E0,-6.215356588E-1,9.712467194E0,3.637090325E-1
3.042799198E0,-3.714857101E-1,9.827920914E0,4.420739710E-1
3.045036014E0,-4.307080805E-1,9.803992271E0,5.754738450E-1
3.047269656E0,-6.568298340E-1,9.778269768E0,6.687939167E-1
3.049497440E0,-8.147560954E-1,9.766305923E0,6.669993401E-1
3.051745792E0,-9.798609018E-1,9.696913719E0,7.513462901E-1
3.053983585E0,-1.064207911E0,9.515657425E0,8.033902049E-1
3.056222782E0,-4.893322289E-1,8.681160927E0,5.383850932E-1
3.058455265E0,-5.228317380E-1,8.866603851E0,8.380861282E-1
3.060691471E0,-6.113662124E-1,9.153742790E0,1.089930773E0
3.062927799E0,-6.622136831E-1,9.416355133E0,1.298704505E0
3.065164676E0,-7.950153351E-1,9.608977318E0,1.506880045E0
3.067401249E0,-9.912267923E-1,9.716654778E0,1.624128342E0
3.069638126E0,-1.306481123E0,9.816555023E0,1.749751568E0
3.071875370E0,-1.691127419E0,9.797411919E0,1.865205288E0
3.074108462E0,-2.080559254E0,9.764511108E0,2.005185366E0
3.076335452E0,-2.471187592E0,9.678967476E0,2.101496458E0
3.078572330E0,-2.804388046E0,9.521040916E0,2.165504456E0
3.080820255E0,-3.014358282E0,9.389435768E0,2.455035925E0
3.083059207E0,-3.076571703E0,9.259625435E0,2.783450842E0
3.085295902E0,-3.037090063E0,9.090332985E0,2.974876642E0
3.087530216E0,-2.935395241E0,8.958727837E0,3.166900873E0
3.089767521E0,-2.779263496E0,8.865407944E0,3.259024382E0
3.092003360E0,-2.603390932E0,8.771489143E0,3.294318676E0
3.094236453E0,-2.355733871E0,8.696115494E0,3.282354355E0
3.096461063E0,-2.097907305E0,8.601598740E0,3.236890793E0
3.098700809E0,-1.838884234E0,8.540582657E0,3.125026464E0
3.100949405E0,-1.585245013E0,8.513064384E0,3.051447153E0
3.103188602E0,-1.264008522E0,8.480163574E0,2.987439156E0
3.105425236E0,-9.996016622E-1,8.519644737E0,2.918047190E0
3.107659732E0,-7.537391186E-1,8.559126854E0,2.825325251E0
3.109895084E0,-6.137589812E-1,8.595617294E0,2.740380049E0
3.112131473E0,-5.976074338E-1,8.676973343E0,2.706880569E0
3.114366458E0,-6.352944374E-1,8.711071014E0,2.692523718E0
3.116599430E0,-8.021938205E-1,8.790034294E0,2.729014158E0
3.118840946E0,-1.141974568E0,8.866603851E0,2.787638426E0
3.121077518E0,-1.730608940E0,8.932407379E0,2.839084148E0
3.123315616E0,-2.741576433E0,8.995218277E0,2.997010469E0
3.125551883E0,-4.746163845E0,9.014361382E0,3.221337557E0
3.127787967E0,-9.017950058E0,9.048459053E0,3.678366661E0
3.130023563E0,-1.284945774E1,9.262616158E0,3.947559118E0
3.132259830E0,-1.174457169E1,9.813564301E0,3.337389469E0
3.134496280E0,-7.184450150E0,1.047637558E1,2.266601324E0
3.136733280E0,-3.099303484E0,1.096331501E1,1.545165181E0
3.138969608E0,-2.763710022E-1,1.118584728E1,1.151545882E0
3.141206546E0,1.070788145E0,1.116132164E1,9.966106415E-1
3.143443057E0,1.153340459E0,1.091127110E1,1.007378340E0
3.145675663E0,3.272185028E-1,1.052124119E1,1.200598717E0
3.147915653E0,-8.793623447E-1,1.006421185E1,1.505085468E0
3.150151920E0,-1.884945989E0,9.600004196E0,1.764108539E0
3.152389712E0,-2.076970100E0,9.296713829E0,1.872383714E0
3.154625431E0,-1.710269928E0,9.114261627E0,1.813759565E0
3.156861942E0,-1.036092162E0,8.956335068E0,1.720439434E0
3.159098575E0,-3.667000830E-1,8.836693764E0,1.631306887E0
3.161336063E0,5.383851007E-2,8.743971825E0,1.606780410E0
3.163571354E0,2.584248483E-1,8.669196129E0,1.622931957E0
3.165807804E0,3.242274821E-1,8.601000786E0,1.685743570E0
3.168044254E0,2.644068897E-1,8.491529465E0,1.785643935E0
3.170280887E0,1.657029688E-1,8.353941917E0,1.889731646E0
3.172517521E0,6.699903309E-2,8.225327492E0,2.046461582E0
3.174754032E0,-5.144568533E-2,8.073383331E0,2.202593327E0
3.176990909E0,-1.363908947E-1,7.925626755E0,2.374278307E0
3.179228153E0,-1.920240223E-1,7.815557003E0,2.507079840E0
3.181461795E0,-2.518445849E-1,7.701299667E0,2.616551638E0
3.183693180E0,-2.829512656E-1,7.600800991E0,2.745165825E0
3.185936161E0,-3.140579760E-1,7.524230957E0,2.864208698E0
3.188173221E0,-3.296113312E-1,7.485945702E0,2.949752092E0
3.190411258E0,-3.104687333E-1,7.485347271E0,3.011965513E0
3.192646122E0,-2.596212626E-1,7.435696602E0,3.122633457E0
3.194882694E0,-2.374876440E-1,7.420741081E0,3.289532900E0
3.197120548E0,-2.291127741E-1,7.395616531E0,3.461217880E0
3.199356876E0,-2.356930375E-1,7.403991699E0,3.680759430E0
3.201592472E0,-2.129612118E-1,7.450651646E0,3.918845177E0
3.203828434E0,-1.944168359E-1,7.526025295E0,4.100101471E0
3.206064823E0,-1.800599098E-1,7.606184959E0,4.247858524E0
3.208298831E0,-1.316052526E-1,7.681559086E0,4.334000111E0
3.210523319E0,-1.016949639E-1,7.762316704E0,4.334598064E0
3.212761051E0,-7.178468257E-2,7.824530125E0,4.305884361E0
3.215000125E0,-2.811566554E-2,7.843074322E0,4.268197536E0
3.217236332E0,2.931207791E-2,7.817949772E0,4.259224415E0
3.219473148E0,4.845465720E-2,7.817949772E0,4.278367043E0
3.221709720E0,1.100698411E-1,7.779066563E0,4.255036831E0
3.223945865E0,1.375873089E-1,7.725826263E0,4.289134502E0
3.226186222E0,1.471585929E-1,7.753942013E0,4.379463673E0
3.228431461E0,1.375873089E-1,7.825128078E0,4.484149456E0
3.230655704E0,1.088734269E-1,7.910671711E0,4.612763882E0
3.232892826E0,9.032905847E-2,8.058428764E0,4.812564373E0
3.235125308E0,4.247260094E-2,8.182256699E0,5.035695076E0
3.237364872E0,1.914258115E-2,8.330014229E0,5.245067120E0
3.239601200E0,-1.196411345E-2,8.578269005E0,5.411368370E0
3.241837955E0,-1.112662554E-1,8.794221878E0,5.639284611E0
3.244074344E0,-1.495514214E-1,9.421739578E0,5.532804012E0
3.246310795E0,-8.554340899E-2,9.440283775E0,5.376074314E0
3.248550114E0,-3.690928817E-1,9.031110764E0,5.912664890E0
3.250799442E0,-4.911268353E-1,8.945567131E0,6.107679844E0
3.253034976E0,-7.244270444E-1,8.786444664E0,6.181857109E0
3.255271426E0,-9.433703423E-1,8.588438988E0,6.285346985E0
3.257504764E0,-1.124626637E0,8.408378601E0,6.440880299E0
3.259741520E0,-1.281356573E0,8.224131584E0,6.535397053E0
3.261977909E0,-1.455434322E0,8.130811691E0,6.595815659E0
3.264211490E0,-1.600200176E0,8.056633949E0,6.537191391E0
3.266439395E0,-1.709671736E0,8.077570915E0,6.536593437E0
3.268689151E0,-1.742573142E0,8.092526436E0,6.497709751E0
3.270925235E0,-1.842473388E0,8.151748657E0,6.463612080E0
3.273163822E0,-1.869392633E0,8.204988480E0,6.353542328E0
3.275396182E0,-1.858026743E0,8.277371407E0,6.224927902E0
3.277629947E0,-1.846660852E0,8.321041107E0,6.077171326E0
3.279869938E0,-1.859223247E0,8.355138779E0,5.971887112E0
3.282106449E0,-1.905883193E0,8.385048866E0,5.876173973E0
3.284343998E0,-1.980658889E0,8.453842163E0,5.741578102E0
3.286580753E0,-2.117648125E0,8.532805443E0,5.654838085E0
3.288816349E0,-2.279163599E0,8.574081421E0,5.538786411E0
3.291052921E0,-2.430509567E0,8.633902550E0,5.413163185E0
3.293288944E0,-2.624926329E0,8.704490662E0,5.291727066E0
3.295525699E0,-2.819941521E0,8.755936623E0,5.161318302E0
3.297762088E0,-2.980858803E0,8.816354752E0,5.040481091E0
3.299998905E0,-3.156731367E0,8.839086533E0,4.914857864E0
3.302235538E0,-3.303889751E0,8.879764557E0,4.803591251E0
3.304473087E0,-3.403192043E0,8.915657043E0,4.697709084E0
3.306708377E0,-3.512663603E0,8.907880783E0,4.610969067E0
3.308944950E0,-3.603590965E0,8.904291153E0,4.605585575E0
3.311181034E0,-3.694518089E0,8.906085968E0,4.600201607E0
3.313418216E0,-3.790829182E0,8.916853905E0,4.632504463E0
3.315654850E0,-3.887140274E0,8.903693199E0,4.669593334E0
3.317890751E0,-3.987638950E0,8.919246674E0,4.725824833E0
3.320127567E0,-4.088137627E0,8.958727837E0,4.753342152E0
3.322364994E0,-4.160520554E0,8.945567131E0,4.781457901E0
3.324600528E0,-4.212564468E0,8.979664803E0,4.780859470E0
3.326837040E0,-4.241278172E0,8.994620323E0,4.790431023E0
3.329073124E0,-4.260420799E0,9.013762474E0,4.818546772E0
3.331310184E0,-4.288536549E0,9.038289070E0,4.808975220E0
3.333546512E0,-4.326223373E0,9.062815666E0,4.794020176E0
3.335783146E0,-4.378267288E0,9.111868858E0,4.741377831E0
3.338019901E0,-4.457828522E0,9.161520004E0,4.625924587E0
3.340257511E0,-4.551746845E0,9.168698311E0,4.424927235E0
3.342491764E0,-4.683950424E0,9.186046600E0,4.199403763E0
3.344721073E0,-4.835894585E0,9.232108116E0,4.059423447E0
3.346965458E0,-5.016552448E0,9.282955170E0,4.005585194E0
3.349201969E0,-5.197210789E0,9.352347374E0,3.994219303E0
3.351440616E0,-5.354538918E0,9.436096191E0,4.025924206E0
3.353675174E0,-5.492724419E0,9.514460564E0,4.067200184E0
3.355911991E0,-5.568098068E0,9.606584549E0,4.076173306E0
3.358149356E0,-5.620141983E0,9.683753014E0,4.094717979E0
3.360384891E0,-5.657230854E0,9.732208252E0,4.089334011E0
3.362621158E0,-5.632704735E0,9.779465675E0,4.074976921E0
3.364857303E0,-5.748756409E0,9.780662537E0,4.241278172E0
3.367094364E0,-6.481558323E0,9.653244972E0,5.193023205E0
3.369330997E0,-7.744370461E0,9.509675026E0,7.079165936E0
3.371567569E0,-8.670392990E0,9.400801659E0,8.830712318E0
3.373804080E0,-8.656036377E0,9.421140671E0,9.488738060E0
3.376041385E0,-7.928617954E0,9.564111710E0,9.237491608E0
3.378277042E0,-6.846463680E0,9.728618622E0,8.446065903E0
3.380513797E0,-5.676373482E0,9.902696609E0,7.388438225E0
3.382749576E0,-4.621138573E0,1.004985523E1,6.320641041E0
3.384986210E0,-3.765106440E0,1.011805058E1,5.393422127E0
3.387222965E0,-3.141776085E0,1.011625576E1,4.712664127E0
3.389459659E0,-2.881556749E0,9.999606133E0,4.324428558E0
3.391696475E0,-2.873780012E0,9.785448074E0,4.152743816E0
3.393933475E0,-3.095714331E0,9.467203140E0,4.380061626E0
3.396169010E0,-3.540779352E0,9.117252350E0,4.910670280E0
3.398405399E0,-3.923630953E0,8.757132530E0,5.417948723E0
3.400641971E0,-4.073182583E0,8.514261246E0,5.717649937E0
3.402878482E0,-3.989433527E0,8.340781212E0,5.709274769E0
3.405114933E0,-3.720839262E0,8.251648903E0,5.459224701E0
3.407351688E0,-3.368496180E0,8.214560509E0,5.123631477E0
3.409588504E0,-3.113660574E0,8.149953842E0,4.892724037E0
3.411825870E0,-2.955734253E0,8.123632431E0,4.822733879E0
3.414062137E0,-2.967100143E0,8.042277336E0,4.927420139E0
3.416297733E0,-3.238087177E0,8.039883614E0,5.258825779E0
3.418534122E0,-3.767499208E0,8.184051514E0,5.811567783E0
3.420770633E0,-4.009174347E0,8.228917122E0,6.166902065E0
3.423007206E0,-4.066602230E0,8.272585869E0,6.204588890E0
3.425243778E0,-4.031906128E0,8.272585869E0,6.109474182E0
3.427480594E0,-4.007379532E0,8.291728973E0,6.033502102E0
3.429717899E0,-4.055236340E0,8.310871124E0,6.075974941E0
3.431953251E0,-4.132404804E0,8.331210136E0,6.180062771E0
3.434189518E0,-4.141975880E0,8.378468513E0,6.232106686E0
3.436424869E0,-4.089334011E0,8.353941917E0,6.237490654E0
3.438662723E0,-4.070191383E0,8.330014229E0,6.195017815E0
3.440899295E0,-4.002593994E0,8.310273170E0,6.123831272E0
3.443136112E0,-3.964907169E0,8.252246857E0,6.095715523E0
3.445372013E0,-3.931407690E0,8.233104706E0,6.038886070E0
3.447605350E0,-3.884149313E0,8.155936241E0,6.001199245E0
3.449834598E0,-3.780061483E0,8.063812256E0,5.988038540E0
3.452081974E0,-3.695714474E0,7.980661869E0,6.036493301E0
3.454318729E0,-3.597010612E0,7.878368378E0,6.142973900E0
3.456557742E0,-3.483949661E0,7.828119278E0,6.248856544E0
3.458791385E0,-3.360719442E0,7.758727551E0,6.326025009E0
3.461027958E0,-3.203391314E0,7.737192154E0,6.394818306E0
3.463264774E0,-3.040081263E0,7.787441254E0,6.391229153E0
3.465502140E0,-2.881556749E0,7.828119278E0,6.406782627E0
3.467737674E0,-2.673979282E0,7.920242786E0,6.427719593E0
3.469974002E0,-2.462812662E0,7.993224144E0,6.491727829E0
3.472210331E0,-2.245664120E0,8.100302696E0,6.488736629E0
3.474447086E0,-1.995614052E0,8.182256699E0,6.528816700E0
3.476683475E0,-1.770090580E0,8.236095428E0,6.554539204E0
3.478919986E0,-1.539781332E0,8.298907280E0,6.642475605E0
3.481156681E0,-1.324427366E0,8.338388443E0,6.716054916E0
3.483394718E0,-1.133001566E0,8.353941917E0,6.822535515E0
3.485630802E0,-9.134600163E-1,8.345566750E0,6.924828529E0
3.487866397E0,-6.939185858E-1,8.318049431E0,6.979265213E0
3.490102421E0,-4.067798555E-1,8.275577545E0,6.900900364E0
3.492339237E0,-3.397808075E-1,8.208578110E0,6.796812534E0
3.494575809E0,-3.643072546E-1,8.103892326E0,6.715456963E0
3.496812381E0,-3.038884699E-1,7.983652592E0,6.687939167E0
3.499048954E0,-2.333002090E-1,7.882555962E0,6.640681267E0
3.501286502E0,-2.685943544E-1,7.768298626E0,6.655037880E0
3.503521854E0,-1.262213886E-1,7.655836105E0,6.623332977E0
3.505758487E0,-2.063809484E-1,7.446464062E0,6.708876610E0
3.507991825E0,-3.002992272E-1,7.317849636E0,6.832107067E0
3.510219913E0,-1.962114573E-1,7.178467751E0,6.756732941E0
3.512466739E0,-6.281159073E-2,7.061817646E0,6.615556240E0
3.514698856E0,-3.343969584E-1,6.912266254E0,6.746563435E0
3.516944217E0,-5.515456200E-1,6.810571671E0,6.806982040E0
3.519178531E0,-7.543373108E-1,6.713063717E0,6.819544315E0
3.521415348E0,-9.475577474E-1,6.638886452E0,6.875177860E0
3.523650455E0,-1.154536963E0,6.579664230E0,6.906284332E0
3.525886661E0,-1.308874011E0,6.538986206E0,6.919445038E0
3.528123905E0,-1.496112347E0,6.498906136E0,6.932007313E0
3.530359989E0,-1.649253011E0,6.477370739E0,6.887740135E0
3.532596622E0,-1.817348838E0,6.474977970E0,6.881757736E0
3.534833377E0,-2.038086653E0,6.454638958E0,6.903293133E0
3.537070926E0,-2.210369825E0,6.442675114E0,6.897311211E0
3.539306095E0,-2.392224550E0,6.464808464E0,6.900302410E0
3.541541019E0,-2.549552441E0,6.491129398E0,6.874579430E0
3.543771488E0,-2.706880569E0,6.512664795E0,6.806384087E0
3.546011600E0,-2.821137905E0,6.534200668E0,6.743572235E0
3.548236454E0,-2.940180779E0,6.536593437E0,6.647261143E0
3.550490726E0,-3.034697294E0,6.571887493E0,6.555736065E0
3.552725528E0,-3.090928555E0,6.606583118E0,6.435496330E0
3.554966983E0,-3.128615618E0,6.612565517E0,6.334998131E0
3.557199344E0,-3.146561861E0,6.627520561E0,6.239883423E0
3.559434940E0,-3.207578659E0,6.638886452E0,6.081956863E0
3.561668033E0,-3.224926710E0,6.677769661E0,5.952744484E0
3.563895633E0,-3.276970625E0,6.674778938E0,5.833103180E0
3.566144413E0,-3.342773199E0,6.671189308E0,5.694319725E0
3.568380985E0,-3.394817114E0,6.629913330E0,5.550750256E0
3.570620670E0,-3.442673683E0,6.583253384E0,5.435894966E0
3.572855350E0,-3.500699520E0,6.507879257E0,5.344967365E0
3.575090458E0,-3.558127165E0,6.452246189E0,5.273182869E0
3.577327091E0,-3.616153240E0,6.367300987E0,5.200799942E0
3.579560916E0,-3.641277790E0,6.300900459E0,5.181657314E0
3.581790653E0,-3.694518089E0,6.229713917E0,5.143372059E0
3.584036502E0,-3.748356581E0,6.168696880E0,5.133202553E0
3.586273014E0,-3.812364578E0,6.111867428E0,5.247459888E0
3.588512027E0,-3.770490170E0,6.034100533E0,5.271388054E0
3.590743412E0,-3.779463291E0,5.992226124E0,5.171487808E0
3.592967350E0,-3.909274101E0,5.979663849E0,5.199005604E0
3.595216007E0,-4.043870449E0,5.971887112E0,5.245665550E0
3.597443790E0,-4.150351048E0,5.939583778E0,5.292325497E0
3.599696292E0,-4.226921082E0,5.945566177E0,5.277370453E0
3.601928653E0,-4.288536549E0,5.951548100E0,5.238486767E0
3.604164555E0,-4.350749969E0,5.971887112E0,5.218746185E0
3.606387760E0,-4.431507587E0,6.001797199E0,5.208576679E0
3.608636295E0,-4.482953072E0,6.045466423E0,5.169693470E0
3.610862613E0,-4.534996986E0,6.080162525E0,5.149952412E0
3.613114505E0,-4.562514782E0,6.152545452E0,5.116453171E0
3.615347477E0,-4.581058979E0,6.181259155E0,5.068596363E0
3.617587162E0,-4.599603176E0,6.200999737E0,5.001597404E0
3.619820987E0,-4.593621254E0,6.230311871E0,4.905884743E0
3.622057254E0,-4.564309120E0,6.206383705E0,4.829912663E0
3.624294132E0,-4.520640373E0,6.172883987E0,4.706682205E0
3.626531620E0,-4.462614059E0,6.153143406E0,4.597210407E0
3.628767948E0,-4.405186653E0,6.105287075E0,4.469194412E0
3.631003299E0,-4.328616142E0,6.056233883E0,4.412963390E0
3.633239628E0,-4.285545349E0,6.017949104E0,4.356133461E0
3.635476200E0,-4.242474556E0,6.022136211E0,4.361517429E0
3.637713016E0,-4.233501434E0,5.997610092E0,4.437489510E0
3.639949405E0,-4.221537113E0,5.901299000E0,4.552345276E0
3.642186405E0,-4.243072987E0,5.828916073E0,4.680959225E0
3.644423465E0,-4.206582069E0,5.737390518E0,4.800600529E0
3.646659976E0,-4.147359848E0,5.625525951E0,4.939982414E0
3.648898929E0,-4.155734539E0,5.500501156E0,5.159523964E0
3.651131473E0,-4.271188259E0,5.313860893E0,5.535196781E0
3.653368534E0,-4.362713814E0,5.198407173E0,5.940182209E0
3.655604251E0,-4.342973232E0,5.105685234E0,6.302694798E0
3.657841739E0,-4.147359848E0,5.125426292E0,6.500102520E0
3.660078311E0,-3.806382656E0,5.210969448E0,6.498308182E0
3.662315799E0,-3.419941664E0,5.330012321E0,6.358327866E0
3.664551090E0,-2.990430117E0,5.468197823E0,6.186044693E0
3.666787479E0,-2.589632273E0,5.615954876E0,6.026922226E0
3.669023746E0,-2.329412937E0,5.655436516E0,5.915057659E0
3.671260624E0,-2.175673962E0,5.662614822E0,5.897111416E0
3.673497257E0,-2.156531334E0,5.648257732E0,5.873781204E0
3.675734134E0,-2.189432621E0,5.658427238E0,5.844469070E0
3.677971805E0,-2.222932339E0,5.645267010E0,5.767899036E0
3.680207645E0,-2.318047047E0,5.656632900E0,5.690730572E0
3.682443180E0,-2.407777786E0,5.672784328E0,5.603990555E0
3.684679264E0,-2.511865616E0,5.727221012E0,5.517251015E0
3.686916141E0,-2.683550596E0,5.744568825E0,5.429912567E0
3.689152713E0,-2.850450039E0,5.757131100E0,5.356931686E0
3.691389347E0,-2.982653379E0,5.836094379E0,5.269593716E0
3.693625858E0,-3.168097258E0,5.896512985E0,5.196612358E0
3.695862674E0,-3.378067255E0,5.942574978E0,5.189434052E0
3.698100101E0,-3.598206997E0,5.946164131E0,5.144568920E0
3.700336795E0,-3.744767427E0,6.029912949E0,5.100301266E0
3.702571903E0,-3.863810301E0,6.061019897E0,5.012963295E0
3.704808292E0,-3.944568157E0,6.062216282E0,4.960321426E0
3.707044742E0,-4.030111313E0,6.054439545E0,4.844867706E0
3.709281620E0,-4.083351612E0,6.017350674E0,4.853840828E0
3.711518497E0,-4.180261135E0,5.782854080E0,5.125426292E0
3.713752322E0,-4.259224415E0,5.650052547E0,5.205585480E0
3.715973514E0,-4.309473515E0,5.708676815E0,5.019543648E0
3.718227665E0,-4.383651257E0,5.797211170E0,4.851448059E0
3.720463444E0,-4.429114819E0,5.865406513E0,4.688735962E0
3.722704898E0,-4.451248169E0,5.933003902E0,4.569094658E0
3.724936893E0,-4.439284325E0,6.038886070E0,4.478765965E0
3.727173771E0,-4.408775806E0,6.129813194E0,4.398007870E0
3.729410282E0,-4.359124660E0,6.215356827E0,4.364508629E0
3.731646976E0,-4.319643021E0,6.324230194E0,4.398007870E0
3.733884403E0,-4.295116425E0,6.390631199E0,4.450650215E0
3.736119754E0,-4.252644062E0,6.422934055E0,4.565505505E0
3.738356327E0,-4.311866283E0,6.375077724E0,4.703691006E0
3.740592350E0,-4.453042984E0,6.300302029E0,4.859822750E0
3.742826236E0,-4.495515347E0,6.362515450E0,4.892724037E0
3.745053836E0,-4.407579422E0,6.500102520E0,4.916652203E0
3.747302433E0,-4.295116425E0,6.665207386E0,4.974678040E0
3.749539249E0,-4.140779495E0,6.824928284E0,5.133202553E0
3.751779484E0,-3.944568157E0,6.959524632E0,5.335396290E0
3.754011844E0,-3.744169235E0,7.041478634E0,5.594419479E0
3.756248417E0,-3.549154282E0,7.056434155E0,5.867799282E0
3.758484745E0,-3.342175007E0,6.979863644E0,6.156134605E0
3.760721561E0,-3.177668571E0,6.890132904E0,6.419943333E0
3.762957950E0,-3.061018467E0,6.801598549E0,6.611967087E0
3.765194706E0,-2.913859844E0,6.736393929E0,6.732804775E0
3.767431278E0,-2.819343328E0,6.725028038E0,6.819544315E0
3.769668888E0,-2.720041037E0,6.632306099E0,6.829713821E0
3.771905094E0,-2.639881611E0,6.545566559E0,6.826124668E0
3.774138309E0,-2.569293261E0,6.443871498E0,6.850651264E0
3.776368046E0,-2.546561480E0,6.366703033E0,6.870391846E0
3.778611515E0,-2.581257343E0,6.328417778E0,6.946363926E0
3.780842655E0,-2.663809776E0,6.281757832E0,6.997809887E0
3.783088748E0,-2.723032236E0,6.234499454E0,7.107281685E0
3.785323429E0,-2.824727058E0,6.216553211E0,7.197012424E0
3.787562809E0,-2.959921598E0,6.208178520E0,7.329215527E0
3.789796268E0,-3.104089260E0,6.257231236E0,7.494918823E0
3.792032535E0,-3.248854876E0,6.306283951E0,7.674380302E0
3.794268680E0,-3.436691523E0,6.351149559E0,7.892127514E0
3.796505985E0,-3.657429457E0,6.430112839E0,8.061419487E0
3.798742313E0,-3.959523201E0,6.424728870E0,8.134998322E0
3.800978702E0,-4.194019794E0,6.528218269E0,8.228319168E0
3.803215396E0,-4.332205296E0,6.668198586E0,8.402995110E0
3.805452762E0,-4.427320004E0,6.774679184E0,8.502297401E0
3.807685428E0,-4.598406792E0,6.920042992E0,8.595617294E0
3.809912967E0,-4.811367989E0,7.143173695E0,8.655437469E0
3.812161014E0,-4.917848587E0,7.393223763E0,8.677571297E0
3.814397831E0,-5.004588604E0,7.676773071E0,8.681160927E0
3.816637394E0,-4.991427898E0,7.906484127E0,8.585447311E0
3.818871036E0,-4.995615482E0,8.165507317E0,8.427521706E0
3.821107791E0,-5.221737385E0,8.385048866E0,8.306085587E0
3.823344852E0,-5.538786411E0,8.600402832E0,8.202595711E0
3.825580448E0,-5.937191010E0,8.822337151E0,8.098507881E0
3.827816959E0,-6.245865345E0,8.928219795E0,7.957331657E0
3.830053165E0,-6.453442574E0,9.004191399E0,7.707281590E0
3.832290226E0,-6.556932449E0,8.992825508E0,7.410571575E0
3.834526798E0,-6.496513367E0,9.031708717E0,7.101299286E0
3.836763370E0,-6.296712875E0,9.059226990E0,6.783652306E0
3.838999942E0,-5.930611134E0,9.055039406E0,6.467201233E0
3.841237735E0,-5.573482037E0,9.041280746E0,6.170491219E0
3.843473941E0,-5.216951370E0,8.994620323E0,5.820540905E0
3.845708561E0,-4.870590687E0,8.933603287E0,5.485546112E0
3.847943119E0,-4.524229527E0,8.858229637E0,5.202594757E0
3.850181644E0,-4.160520554E0,8.714659691E0,5.005784988E0
3.852418583E0,-3.831507206E0,8.538188934E0,4.871188641E0
3.854655765E0,-3.713062525E0,8.365307808E0,4.729413986E0
3.856888431E0,-3.742972851E0,8.179863930E0,4.533800602E0
3.859114017E0,-3.825525284E0,8.024331093E0,4.390231133E0
3.861365177E0,-3.898506403E0,7.882555962E0,4.251447678E0
3.863601383E0,-4.037888050E0,7.774878979E0,4.145565033E0
3.865841434E0,-4.192225456E0,7.682157040E0,4.072584152E0
3.868074527E0,-4.350151539E0,7.627720356E0,3.928416491E0
3.870310917E0,-4.451248169E0,7.586444378E0,3.913461447E0
3.872547489E0,-4.557130814E0,7.549355507E0,3.950550079E0
3.874784000E0,-4.654039860E0,7.508079052E0,3.963710785E0
3.877021305E0,-4.694119930E0,7.469195843E0,4.154538155E0
3.879256717E0,-4.796412945E0,7.436892986E0,4.291527271E0
3.881493595E0,-4.841278553E0,7.389036179E0,4.448855400E0
3.883729862E0,-4.838885784E0,7.354340553E0,4.677968502E0
3.885966556E0,-4.856233597E0,7.290930748E0,4.911268711E0
3.888203312E0,-4.858027935E0,7.252047062E0,5.106881618E0
3.890439823E0,-4.888536453E0,7.232306480E0,5.297709465E0
3.892676456E0,-4.937589645E0,7.213163853E0,5.406582832E0
3.894913639E0,-4.986642361E0,7.194619656E0,5.472983360E0
3.897148990E0,-5.082355499E0,7.182057381E0,5.486742496E0
3.899385624E0,-5.112265587E0,7.143772125E0,5.505286694E0
3.901621952E0,-5.141577721E0,7.125227451E0,5.542973518E0
3.903858829E0,-5.112265587E0,7.124629498E0,5.534000397E0
3.906093265E0,-5.136792183E0,7.096513748E0,5.548357487E0
3.908323368E0,-5.130809784E0,7.139584541E0,5.457430363E0
3.910565738E0,-5.072185993E0,7.172485828E0,5.367101192E0
3.912794986E0,-4.898108006E0,7.256234646E0,5.321039200E0
3.915044254E0,-4.700700283E0,7.334599495E0,5.375475883E0
3.917277958E0,-4.480560303E0,7.354938507E0,5.429912567E0
3.919516788E0,-4.237090588E0,7.369295597E0,5.570491314E0
3.921749149E0,-4.034298897E0,7.312466145E0,5.824728489E0
3.923981266E0,-3.898506403E0,7.289734364E0,6.202794552E0
3.926223819E0,-3.844667673E0,7.243672371E0,6.594619274E0
3.928459110E0,-3.896711588E0,7.156932354E0,6.956533432E0
3.930692508E0,-4.115654945E0,7.053442955E0,7.193423271E0
3.932933292E0,-4.481756687E0,6.934400082E0,7.242475986E0
3.935170047E0,-4.929214478E0,6.755536556E0,7.124031067E0
3.937408085E0,-5.333003521E0,6.599404812E0,7.001399040E0
3.939642276E0,-5.635097504E0,6.513861656E0,6.884748936E0
3.941876529E0,-5.701498032E0,6.519843578E0,6.831508636E0
3.944112369E0,-5.687141418E0,6.538986206E0,6.841079712E0
3.946339054E0,-5.330610752E0,6.501298904E0,6.501298904E0
3.948590945E0,-5.108676434E0,7.177869797E0,6.378068924E0
3.950825626E0,-4.858626366E0,8.019545555E0,6.564708710E0
3.953065616E0,-4.332205296E0,8.799007416E0,6.878168583E0
3.955298466E0,-3.832105398E0,1.043689442E1,7.800601959E0
3.957532352E0,-3.955335855E0,1.168953705E1,9.313464165E0
3.959759891E0,-4.485944271E0,1.125404263E1,9.004191399E0
3.962008121E0,-4.831109047E0,1.087717342E1,8.949156761E0
3.964245242E0,-5.120640278E0,1.036032391E1,8.866603851E0
3.966487247E0,-5.450850010E0,9.667601585E0,8.749954224E0
3.968717960E0,-5.757729530E0,8.851051331E0,8.471788406E0
3.970954532E0,-6.062814236E0,8.021339417E0,7.974679470E0
3.973190067E0,-6.242276192E0,7.180860519E0,7.340581894E0
3.975427433E0,-6.342176437E0,6.497111797E0,6.615556240E0
3.977664127E0,-6.305087566E0,5.964708805E0,5.834897995E0
3.979900272E0,-6.190232277E0,5.612365723E0,5.197809219E0
3.982137149E0,-5.919843197E0,5.510072231E0,4.718646049E0
3.984374820E0,-5.510072231E0,5.652445316E0,4.645665169E0
3.986611026E0,-4.989633560E0,5.964110374E0,4.845465660E0
3.988846622E0,-4.469194412E0,6.403791428E0,5.250451088E0
3.991082828E0,-4.025924206E0,6.872784615E0,5.768496990E0
3.993319217E0,-3.751347780E0,7.281359196E0,6.385247231E0
3.995555973E0,-3.699303865E0,7.503293514E0,6.853044033E0
3.997792301E0,-3.766901016E0,7.636693478E0,7.166503906E0
4.000029239E0,-3.802195072E0,7.560122967E0,7.266404152E0
4.002266727E0,-3.580859184E0,7.733004570E0,7.454240799E0
4.004499271E0,-2.795415163E0,8.490332603E0,7.612765312E0
4.006724246E0,-1.834696770E0,9.590433121E0,7.543373585E0
4.008960086E0,-2.195414782E0,9.410373688E0,7.331010342E0
4.011200199E0,-2.626721144E0,9.025128365E0,7.279564857E0
4.013451481E0,-2.864208698E0,8.813364029E0,7.239484787E0
4.015687748E0,-3.004188776E0,8.743971825E0,7.205387115E0
4.017924747E0,-3.086143017E0,8.706883430E0,7.209574699E0
4.020159000E0,-3.315854073E0,8.691329956E0,7.192824841E0
4.022394413E0,-3.527618885E0,8.637491226E0,7.195816040E0
4.024627689E0,-3.696911097E0,8.496315002E0,7.161119938E0
4.026855045E0,-3.626920938E0,8.380263329E0,7.190432072E0
4.029103885E0,-3.450450182E0,8.334799767E0,7.225726128E0
4.031340458E0,-3.288336515E0,8.274978638E0,7.165307522E0
4.033579777E0,-3.193221807E0,8.178668022E0,7.066005230E0
4.035813724E0,-3.049652576E0,8.053044319E0,6.900900364E0
4.038051395E0,-2.891128063E0,7.984251022E0,6.739983082E0
4.040286563E0,-2.694318295E0,7.938787460E0,6.575476646E0
4.042523075E0,-2.506481647E0,7.927421570E0,6.443273067E0
4.044759037E0,-2.285743713E0,7.948358536E0,6.383452415E0
4.046995975E0,-2.084148407E0,7.963912010E0,6.418746948E0
4.049232547E0,-2.062613010E0,7.919644833E0,6.619145870E0
4.051469242E0,-1.678565025E0,7.928617954E0,6.513263226E0
4.053706241E0,-1.424327731E0,7.872984886E0,6.391229153E0
4.055943546E0,-1.262213945E0,7.761120319E0,6.293123722E0
4.058179813E0,-1.146760225E0,7.702496052E0,6.156134605E0
4.060414493E0,-9.511470199E-1,7.609176159E0,6.034100533E0
4.062646121E0,-8.207381964E-1,7.536793232E0,5.810969830E0
4.064876346E0,-6.520441771E-1,7.506284714E0,5.645864964E0
4.067124942E0,-3.714857101E-1,7.368099213E0,5.596213818E0
4.069362064E0,-4.235295951E-1,7.317251682E0,5.457430363E0
4.071601017E0,-4.713860750E-1,7.275377274E0,5.366502762E0
4.073835514E0,-6.717849374E-1,7.240681171E0,5.188237667E0
4.076070621E0,-9.296116233E-1,7.192824841E0,4.985445976E0
4.078307254E0,-1.249053478E0,7.141977310E0,4.744369030E0
4.080543522E0,-1.582852125E0,7.095915318E0,4.412364960E0
4.082780399E0,-1.954337835E0,7.055237770E0,4.061218262E0
4.085016788E0,-2.383251429E0,6.996613503E0,3.708875179E0
4.087253543E0,-2.743969440E0,7.009175777E0,3.271586657E0
4.089489139E0,-3.129213810E0,6.930810928E0,2.796611547E0
4.091720645E0,-3.643670797E0,6.859624386E0,2.305484533E0
4.093948367E0,-3.951746702E0,6.914061069E0,1.973480463E0
4.096185062E0,-4.198207378E0,6.905087948E0,1.608574986E0
4.098425479E0,-4.326223373E0,6.865008354E0,1.354935765E0
4.100675663E0,-4.402793884E0,6.752545357E0,1.111466169E0
4.102911929E0,-4.365106583E0,6.619145870E0,9.732806087E-1
4.105148258E0,-4.275375843E0,6.503093719E0,9.122636318E-1
4.107382450E0,-4.089334011E0,6.428916454E0,8.668000102E-1
4.109619754E0,-3.817748547E0,6.343372822E0,8.883354068E-1
4.111855106E0,-3.527020693E0,6.285944939E0,9.816554785E-1
4.114091373E0,-3.217748165E0,6.223133564E0,1.141974568E0
4.116327823E0,-2.918047190E0,6.169893265E0,1.354935765E0
4.118565067E0,-2.633301258E0,6.130411625E0,1.600798368E0
4.120801212E0,-2.410768747E0,6.068796635E0,1.846062660E0
4.123037723E0,-2.216351986E0,6.069394588E0,2.124228239E0
4.125274234E0,-2.088934183E0,6.065805435E0,2.364108801E0
4.127509952E0,-2.032702923E0,6.087938786E0,2.559721947E0
4.129739566E0,-1.999801517E0,6.134599209E0,2.727219582E0
4.131983585E0,-1.990828395E0,6.191428661E0,2.884547710E0
4.134217105E0,-1.986641049E0,6.238088608E0,3.051447153E0
4.136446842E0,-1.996810555E0,6.270989895E0,3.156133175E0
4.138693363E0,-2.006381750E0,6.318846226E0,3.227319479E0
4.140930057E0,-2.010569334E0,6.376274109E0,3.275176048E0
4.143169620E0,-1.991426587E0,6.394818306E0,3.313461065E0
4.145403995E0,-1.995614052E0,6.413960934E0,3.289532900E0
4.147639591E0,-1.985444546E0,6.437889099E0,3.284747362E0
4.149876346E0,-1.995614052E0,6.428318024E0,3.298506021E0
4.152112186E0,-2.014756680E0,6.424130440E0,3.308077335E0
4.154349063E0,-2.044068813E0,6.395416737E0,3.293720484E0
4.156586857E0,-2.059023857E0,6.367300987E0,3.326621771E0
4.158826542E0,-2.059622049E0,6.337988853E0,3.388834953E0
4.161058780E0,-2.089532375E0,6.318846226E0,3.455235958E0
4.163296207E0,-2.104487419E0,6.294918060E0,3.522234917E0
4.165530521E0,-2.110469580E0,6.256632805E0,3.588635683E0
4.167768253E0,-2.154138565E0,6.223731518E0,3.622135162E0
4.170004459E0,-2.160120726E0,6.189633846E0,3.678964853E0
4.172241153E0,-2.175075769E0,6.142375946E0,3.698107481E0
4.174477909E0,-2.185245275E0,6.104090691E0,3.678964853E0
4.176714176E0,-2.137987137E0,6.046064377E0,3.679563046E0
4.178950870E0,-2.090728760E0,6.040680885E0,3.718446493E0
4.181188358E0,-2.076970100E0,6.006583214E0,3.723232031E0
4.183423954E0,-2.014756680E0,5.991029739E0,3.738187075E0
4.185660343E0,-1.963909149E0,5.918646812E0,3.805186272E0
4.187896610E0,-1.789831281E0,5.757131100E0,3.931407690E0
4.190133426E0,-1.668395638E0,5.620740414E0,4.066003799E0
4.192369999E0,-1.707877159E0,5.592624664E0,4.185046673E0
4.194606266E0,-1.508076429E0,5.555535793E0,4.305884361E0
4.196842899E0,-1.213759303E0,5.440082073E0,4.404588223E0
4.199080753E0,-1.297508121E0,5.613562107E0,4.403391838E0
4.201317325E0,-1.409970760E0,5.773283005E0,4.363910198E0
4.203552677E0,-1.540977836E0,5.962316036E0,4.333401680E0
4.205788639E0,-1.686341763E0,6.150750637E0,4.298706055E0
4.208024967E0,-1.741376638E0,6.305087566E0,4.283750534E0
4.210262088E0,-1.824527264E0,6.531209469E0,4.277768612E0
4.212498722E0,-2.027318954E0,6.753741741E0,4.299304008E0
4.214735660E0,-2.198405743E0,6.866204739E0,4.321437836E0
4.216973026E0,-2.408375978E0,6.950551510E0,4.357329845E0
4.219208133E0,-2.499303341E0,6.975676060E0,4.399204254E0
4.221444706E0,-2.422732830E0,7.022336483E0,4.447659016E0
4.223680912E0,-2.223530531E0,7.182057381E0,4.444668293E0
4.225919620E0,-2.139781713E0,7.281359196E0,4.316651821E0
4.228162235E0,-2.126621008E0,7.010372162E0,4.006781578E0
4.230390751E0,-2.193022013E0,6.639484406E0,3.792623997E0
4.232627628E0,-2.340180635E0,6.392425537E0,3.829712629E0
4.234862919E0,-2.379063845E0,6.196214199E0,4.086941242E0
4.237100528E0,-2.080559254E0,5.883352757E0,4.552943230E0
4.239337040E0,-2.258824587E0,6.205785751E0,4.698905468E0
4.241573185E0,-2.597409010E0,6.477370739E0,4.981258392E0
4.243810123E0,-2.716451883E0,6.448058605E0,5.423332691E0
4.246046268E0,-2.336591244E0,6.330810547E0,5.665606022E0
4.248283085E0,-2.254039049E0,6.627520561E0,5.417948723E0
4.250519596E0,-2.407179594E0,6.841079712E0,5.230112076E0
4.252757022E0,-2.510669231E0,6.929016113E0,5.143372059E0
4.254992557E0,-2.597409010E0,6.878168583E0,5.075775146E0
4.257229129E0,-2.678765059E0,6.789634228E0,4.936991215E0
4.259465275E0,-2.799004316E0,6.672386169E0,4.773681164E0
4.261702274E0,-2.833700180E0,6.506682873E0,4.582853794E0
4.263938541E0,-2.901895761E0,6.336194515E0,4.415954113E0
4.266174991E0,-3.013760090E0,6.137589931E0,4.277170658E0
4.268411991E0,-3.139383316E0,5.953940868E0,4.118646145E0
4.270649600E0,-3.294318676E0,5.775077343E0,3.979264021E0
4.272885929E0,-3.516252756E0,5.639883041E0,3.939184189E0
4.275121219E0,-3.747160196E0,5.619544029E0,3.999004841E0
4.277357487E0,-3.840480328E0,5.821139336E0,4.064807415E0
4.279593815E0,-3.999603033E0,5.761318684E0,4.110869408E0
4.281830692E0,-4.101896286E0,5.643472195E0,4.100699902E0
4.284067264E0,-4.190430641E0,5.501099110E0,4.119244099E0
4.286304202E0,-3.996612072E0,5.504090309E0,3.868596077E0
4.288541690E0,-4.403391838E0,5.270790100E0,3.946362734E0
4.290776310E0,-4.776672363E0,5.055436134E0,4.095914364E0
4.293010624E0,-5.061418056E0,4.939982414E0,4.145565033E0
4.295249576E0,-5.191228867E0,4.898705959E0,4.177868366E0
4.297486454E0,-5.312066078E0,4.886143684E0,4.234099865E0
4.299723758E0,-5.368896008E0,4.944169998E0,4.314259052E0
4.301959598E0,-5.374279499E0,4.963312149E0,4.362115860E0
4.304194156E0,-5.292923450E0,4.995017052E0,4.439284325E0
4.306425479E0,-5.197210789E0,5.007579803E0,4.487739086E0
4.308669315E0,-5.029713154E0,5.033302307E0,4.555934429E0
4.310905643E0,-4.843671322E0,5.044668198E0,4.667200565E0
4.313143741E0,-4.647459984E0,5.088935375E0,4.773681164E0
4.315378482E0,-4.446462631E0,5.128417015E0,4.890331268E0
4.317615116E0,-4.250251293E0,5.163113117E0,4.968098164E0
4.319851749E0,-4.082155228E0,5.231906891E0,5.069792747E0
4.322088565E0,-3.933202267E0,5.315057278E0,5.156532764E0
4.324325809E0,-3.774079561E0,5.413163185E0,5.219942570E0
4.326558170E0,-3.614956856E0,5.529813290E0,5.288137913E0
4.328784122E0,-3.407977581E0,5.626722336E0,5.389832973E0
4.331027469E0,-3.114258766E0,5.803193092E0,5.478367329E0
4.333270877E0,-2.671586514E0,6.044270039E0,5.658427238E0
4.335510258E0,-2.623131752E0,6.091528416E0,5.715855122E0
4.337745670E0,-2.362912416E0,6.226124287E0,5.727818966E0
4.339980594E0,-1.899901152E0,6.457630157E0,5.803193092E0
4.342218204E0,-1.721635938E0,6.569494724E0,5.880959988E0
4.344454471E0,-1.245464206E0,6.771687984E0,6.046662807E0
4.346690128E0,-1.298106313E0,6.796214581E0,6.065207005E0
4.348926395E0,-1.485344648E0,6.728019238E0,5.940182209E0
4.351162723E0,-1.725225091E0,6.646064758E0,5.837889194E0
4.353399540E0,-1.965105653E0,6.554539204E0,5.730810165E0
4.355637150E0,-2.315055847E0,6.450451851E0,5.613562107E0
4.357874699E0,-2.574079037E0,6.364310265E0,5.468197823E0
4.360100528E0,-2.533401012E0,6.407979012E0,5.215754986E0
4.362345768E0,-1.535593987E0,6.878168583E0,4.742574692E0
4.364580875E0,-1.788634896E0,6.963113785E0,4.768297195E0
4.366820926E0,-1.861616015E0,7.061219692E0,4.491328239E0
4.369055240E0,-1.025922656E0,7.290332317E0,3.997808456E0
4.371291690E0,-5.473581553E-1,7.484749317E0,3.815953970E0
4.373528202E0,-5.455635786E-1,7.509275436E0,3.686741590E0
4.375764286E0,-6.113662124E-1,7.506284714E0,3.471985579E0
4.377999393E0,-7.304090858E-1,7.432705402E0,3.284747362E0
4.380237674E0,-8.650053740E-1,7.320840836E0,3.154936552E0
4.382474247E0,-9.284151793E-1,7.221538544E0,3.097508907E0
4.384711307E0,-1.093519926E0,7.070790768E0,3.101098061E0
4.386947452E0,-1.210768223E0,6.948158741E0,3.147758245E0
4.389183963E0,-1.375872970E0,6.811768055E0,3.208176851E0
4.391420353E0,-1.527219057E0,6.655636311E0,3.278765202E0
4.393654666E0,-1.673779488E0,6.499504566E0,3.368496180E0
4.395883609E0,-1.773081541E0,6.328417778E0,3.453441381E0
4.398129825E0,-1.832902193E0,6.209374905E0,3.529413462E0
4.400366520E0,-1.916650891E0,6.105287075E0,3.629313707E0
4.402605350E0,-1.994417667E0,6.058028698E0,3.690330744E0
4.404839542E0,-2.052443504E0,6.035296917E0,3.718446493E0
4.407075992E0,-2.143370867E0,6.064609051E0,3.760320902E0
4.409312442E0,-2.427518606E0,6.049055576E0,3.915256023E0
4.411549503E0,-2.749951363E0,6.043671608E0,4.083950043E0
4.413787113E0,-3.183650494E0,6.015556335E0,4.347160339E0
4.416023624E0,-3.823730469E0,6.028118610E0,4.722833633E0
4.418258670E0,-4.728815556E0,5.977271080E0,5.224728107E0
4.420494999E0,-5.784648895E0,5.898906231E0,5.906682491E0
4.422729251E0,-6.716653347E0,5.837889194E0,6.680162430E0
4.424959354E0,-7.442276478E0,5.749354839E0,7.412366390E0
4.427204715E0,-8.057829857E0,5.598008633E0,8.051250458E0
4.429441593E0,-8.557929993E0,5.449653625E0,8.657232285E0
4.431681339E0,-8.933603287E0,5.242076397E0,9.121439934E0
4.433914493E0,-9.033503532E0,5.084748268E0,9.349356651E0
4.436151065E0,-8.809774399E0,4.995615482E0,9.351749420E0
4.438387333E0,-8.170292854E0,5.039284706E0,9.114261627E0
4.440624149E0,-7.165905476E0,5.256433010E0,8.545966148E0
4.442860416E0,-6.001199245E0,5.572285652E0,7.841279984E0
4.445096805E0,-4.969294548E0,5.928816319E0,7.053442955E0
4.447333866E0,-4.138985157E0,6.293123722E0,6.283552170E0
4.449571170E0,-3.500699520E0,6.626324177E0,5.554339409E0
4.451806583E0,-3.064607620E0,6.938587666E0,4.904688358E0
4.454043094E0,-2.797807932E0,7.214958668E0,4.381856441E0
4.456279423E0,-2.600399971E0,7.423732281E0,4.077968121E0
4.458516300E0,-2.439482689E0,7.555935860E0,3.955335855E0
4.460752750E0,-2.505883455E0,7.652246952E0,3.993022680E0
4.462988895E0,-2.766103029E0,7.673782349E0,4.281357765E0
4.465226016E0,-3.291925669E0,7.674978733E0,4.695914268E0
4.467463504E0,-3.904488325E0,7.671987534E0,5.224728107E0
4.469698978E0,-4.344767570E0,7.642675400E0,5.754738331E0
4.471935428E0,-4.618147850E0,7.643871784E0,6.329015732E0
4.474170413E0,-4.843072891E0,7.615756035E0,6.923034191E0
4.476404178E0,-5.057828903E0,7.645666599E0,7.421937466E0
4.478644840E0,-5.140381336E0,7.726424217E0,7.735397339E0
4.480881290E0,-5.129613400E0,7.855038643E0,7.835896015E0
4.483119327E0,-4.954937458E0,7.995616913E0,7.822735310E0
4.485355655E0,-4.640879631E0,8.106285095E0,7.696514130E0
4.487592228E0,-4.263411522E0,8.254639626E0,7.490133286E0
4.489827457E0,-3.838087559E0,8.411968231E0,7.274180889E0
4.492063602E0,-3.410968781E0,8.621937752E0,6.991827965E0
4.494300113E0,-2.993421078E0,8.866005898E0,6.728019238E0
4.496536991E0,-2.581855536E0,9.066405296E0,6.512066841E0
4.498773624E0,-2.223530531E0,9.248259544E0,6.367300987E0
4.501010501E0,-1.913659930E0,9.430113792E0,6.288936138E0
4.503247928E0,-1.647458434E0,9.584450722E0,6.238687038E0
4.505483036E0,-1.443470240E0,9.720243454E0,6.163911343E0
4.507716739E0,-1.298106313E0,9.842277527E0,6.131608009E0
4.509944401E0,-1.204786181E0,9.975079536E0,6.113063812E0
4.512192813E0,-1.126421213E0,1.009352398E1,6.094519138E0
4.514429386E0,-1.129412293E0,1.022273636E1,6.123233318E0
4.516668765E0,-1.176670551E0,1.035194874E1,6.241677761E0
4.518902530E0,-1.247258782E0,1.048594666E1,6.374479294E0
4.521140018E0,-1.347757339E0,1.061575794E1,6.583253384E0
4.523375370E0,-1.467996716E0,1.072642612E1,6.805785656E0
4.525613102E0,-1.559522152E0,1.080838013E1,7.009773731E0
4.527851139E0,-1.670788407E0,1.081854916E1,7.199405193E0
4.530078983E0,-1.840678811E0,1.079162979E1,7.398607731E0
4.532321476E0,-2.009970903E0,1.071206856E1,7.497311592E0
4.534554202E0,-2.164906263E0,1.061874866E1,7.548159122E0
4.536784671E0,-2.325225353E0,1.050150013E1,7.561319351E0
4.539032352E0,-2.475374937E0,1.038425159E1,7.560122967E0
4.541267399E0,-2.581855536E0,1.028554821E1,7.530810833E0
4.543506962E0,-2.688336134E0,1.020598698E1,7.501499176E0
4.545738468E0,-2.760719061E0,1.013539886E1,7.462615490E0
4.547969913E0,-2.799602509E0,1.009352398E1,7.429116249E0
4.550213749E0,-2.857030153E0,1.007019424E1,7.380661488E0
4.552450138E0,-2.866003275E0,1.006600666E1,7.318448067E0
4.554686038E0,-2.840878725E0,1.009531879E1,7.199405193E0
4.556912723E0,-2.849253654E0,1.010070229E1,7.070790768E0
4.559160770E0,-2.813959360E0,1.009113121E1,6.870990276E0
4.561396122E0,-2.782852650E0,1.014437199E1,6.651448727E0
4.563635623E0,-2.723032236E0,1.020239735E1,6.422934055E0
4.565869022E0,-2.643470764E0,1.026461124E1,6.175875187E0
4.568105899E0,-2.492722988E0,1.029631615E1,5.976672649E0
4.570342350E0,-2.371287346E0,1.032443142E1,5.791827202E0
4.572579044E0,-2.288734913E0,1.030947590E1,5.645267010E0
4.574816593E0,-2.187039852E0,1.028495026E1,5.498108387E0
4.577052127E0,-2.081157446E0,1.026939678E1,5.384449005E0
4.579288517E0,-1.966302037E0,1.022512913E1,5.304887772E0
4.581524723E0,-1.846660852E0,1.017069244E1,5.234299660E0
4.583761356E0,-1.746760488E0,1.010728264E1,5.173282623E0
4.585995364E0,-1.593619823E0,1.009113121E1,5.155934811E0
4.588223270E0,-1.353739381E0,1.007318497E1,5.110470772E0
4.590471439E0,-8.386843204E-1,1.016650486E1,4.976472855E0
4.592705875E0,8.159525394E-1,1.083111191E1,4.747360229E0
4.594932254E0,1.586441398E0,1.104945660E1,4.649254322E0
4.597169376E0,1.237089276E0,1.077727318E1,4.708476543E0
4.599417057E0,8.781659007E-1,1.044287586E1,4.686941147E0
4.601653690E0,5.910272002E-1,1.010369396E1,4.627718925E0
4.603881168E0,2.979064286E-1,9.739386559E0,4.658825874E0
4.606126774E0,7.657032460E-2,9.431310654E0,4.795814991E0
4.608363468E0,-2.255235314E-1,9.134002686E0,4.941178799E0
4.610603947E0,-6.245267391E-1,8.827720642E0,5.161916733E0
4.612836307E0,-9.996016622E-1,8.550153732E0,5.383252621E0
4.615072940E0,-1.287936807E0,8.300103188E0,5.648257732E0
4.617309208E0,-1.550549030E0,8.126026154E0,5.870192051E0
4.619546085E0,-1.852044702E0,7.957331657E0,6.101099491E0
4.621780704E0,-2.142772675E0,7.807780266E0,6.289534092E0
4.624008365E0,-2.505883455E0,7.668996811E0,6.443871498E0
4.626243778E0,-2.857628345E0,7.558926582E0,6.564708710E0
4.628493350E0,-3.093321562E0,7.505088329E0,6.582056999E0
4.630731815E0,-3.295515060E0,7.619943619E0,6.245865345E0
4.632968265E0,-3.437289715E0,7.698906898E0,6.158527374E0
4.635201603E0,-3.456432343E0,7.713263988E0,6.196812630E0
4.637438053E0,-3.485146284E0,7.723433495E0,6.200999737E0
4.639674625E0,-3.475574970E0,7.751548767E0,6.258427620E0
4.641910953E0,-3.432504177E0,7.774280548E0,6.339783669E0
4.644144839E0,-3.341576815E0,7.829914093E0,6.421737671E0
4.646373417E0,-3.179463148E0,7.869993687E0,6.570691109E0
4.648620792E0,-3.005983353E0,7.990831375E0,6.696314335E0
4.650857364E0,-2.819343328E0,8.073383331E0,6.854838848E0
4.653096622E0,-2.608176708E0,8.160123825E0,7.000202656E0
