"Time (s)","Gyroscope x (rad/s)","Gyroscope y (rad/s)","Gyroscope z (rad/s)"
1.462441000E-2,-1.316414624E-1,-1.261436790E-1,1.004873365E-1
1.681529400E-2,-1.379028261E-1,-1.261436790E-1,1.015563458E-1
1.904547400E-2,-1.488984078E-1,-1.282816976E-1,1.015563458E-1
2.127716400E-2,-1.553124934E-1,-1.366810948E-1,9.896016866E-2
2.352081600E-2,-1.615738571E-1,-1.438587606E-1,9.529497474E-2
2.575848700E-2,-1.655444801E-1,-1.595885456E-1,9.025534242E-2
2.800024700E-2,-1.656972021E-1,-1.728748679E-1,8.155050874E-2
3.023151000E-2,-1.598939747E-1,-1.936442852E-1,7.666359097E-2
3.246667800E-2,-1.479821056E-1,-2.133446932E-1,6.566801667E-2
3.470245700E-2,-1.395827085E-1,-2.304489166E-1,5.711590126E-2
3.693982300E-2,-1.287398487E-1,-2.403754741E-1,4.734205827E-2
3.917670000E-2,-1.165225431E-1,-2.503020465E-1,3.894266114E-2
4.141290600E-2,-1.043052375E-1,-2.541199327E-1,3.405573592E-2
4.364917300E-2,-9.315694869E-2,-2.532036304E-1,2.687807009E-2
4.588586800E-2,-7.956519723E-2,-2.510656118E-1,2.336559631E-2
4.812390500E-2,-7.330382615E-2,-2.487748712E-1,1.970040426E-2
5.035998900E-2,-7.299839705E-2,-2.353358418E-1,1.603521220E-2
5.259540100E-2,-8.613199741E-2,-2.193006277E-1,8.704829961E-3
5.482861700E-2,-1.078177169E-1,-1.945605874E-1,6.108652335E-3
5.705621700E-2,-1.305724531E-1,-1.687515229E-1,2.443460980E-3
5.930475200E-2,-1.536326110E-1,-1.524108797E-1,-1.527163113E-4
6.154108000E-2,-1.756237596E-1,-1.423316002E-1,9.162978968E-4
6.378088700E-2,-1.867720485E-1,-1.409571618E-1,6.872233935E-3
6.601398000E-2,-1.991420686E-1,-1.455386430E-1,8.093964309E-3
6.824579200E-2,-2.064724565E-1,-1.466076523E-1,9.162978269E-3
7.048743000E-2,-2.102903575E-1,-1.488984078E-1,1.038470957E-2
7.272253700E-2,-2.078468949E-1,-1.513418704E-1,1.038470957E-2
7.495764500E-2,-2.090686262E-1,-1.466076523E-1,9.162978269E-3
7.719665900E-2,-2.099849284E-1,-1.380555481E-1,6.719517522E-3
7.943347500E-2,-2.061670274E-1,-1.284344196E-1,8.093964309E-3
8.166815500E-2,-2.046398520E-1,-1.149953827E-1,8.093964309E-3
8.389587700E-2,-2.006692290E-1,-1.006400511E-1,1.191187184E-2
8.614264300E-2,-1.979203373E-1,-8.491026610E-2,1.802052557E-2
8.837921500E-2,-1.953241676E-1,-7.284568250E-2,2.183843218E-2
9.061816700E-2,-1.889100820E-1,-6.078109145E-2,2.565634064E-2
9.285217600E-2,-1.812742651E-1,-4.749477282E-2,3.054326214E-2
9.508868800E-2,-1.774563491E-1,-4.031710699E-2,3.680463135E-2
9.732507700E-2,-1.675297916E-1,-3.451388702E-2,4.306599870E-2
9.956189300E-2,-1.539380401E-1,-2.993239649E-2,4.428773001E-2
1.017962680E-1,-1.478293836E-1,-2.886338346E-2,4.566217586E-2
1.040202060E-1,-1.379028261E-1,-3.023782931E-2,4.810563847E-2
1.062595860E-1,-1.232420653E-1,-3.176499158E-2,4.825835302E-2
1.085072670E-1,-1.134682223E-1,-3.313944116E-2,4.841107130E-2
1.107473780E-1,-1.010981947E-1,-3.695734590E-2,4.474587739E-2
1.129834010E-1,-8.888089657E-2,-3.848451003E-2,4.123340547E-2
1.152169830E-1,-7.895433158E-2,-3.863722831E-2,3.878994286E-2
1.174539220E-1,-6.918048859E-2,-4.245513305E-2,3.527746722E-2
1.196915930E-1,-5.925392732E-2,-4.260785133E-2,3.039054573E-2
1.219277990E-1,-4.948008433E-2,-4.535674304E-2,2.809980139E-2
1.241596100E-1,-3.833179548E-2,-4.550946131E-2,2.565634064E-2
1.263869670E-1,-3.222314268E-2,-4.199698567E-2,2.214386500E-2
1.286355020E-1,-2.596177347E-2,-4.337143153E-2,2.214386500E-2
1.308725010E-1,-1.985312067E-2,-4.337143153E-2,1.725694351E-2
1.331120640E-1,-1.481348183E-2,-3.985895589E-2,1.985312067E-2
1.353458900E-1,-8.704829961E-3,-3.634648025E-2,1.985312067E-2
1.375844150E-1,-7.330383174E-3,-3.039054573E-2,1.740965992E-2
1.398235510E-1,-5.955935922E-3,-2.428189293E-2,1.511891466E-2
1.420547520E-1,-1.985311974E-3,-1.343903504E-2,1.634064503E-2
1.442911410E-1,6.108652451E-4,-3.817907767E-3,1.893682219E-2
1.465269200E-1,-4.581489484E-4,2.290744567E-3,1.893682219E-2
1.487645300E-1,-6.414085161E-3,1.206458826E-2,1.893682219E-2
1.510008580E-1,-9.926560335E-3,2.183843218E-2,1.893682219E-2
1.532376130E-1,-9.773843922E-3,2.672535367E-2,2.260201424E-2
1.554719270E-1,-1.588249579E-2,3.054326214E-2,2.626720630E-2
1.576983070E-1,-2.199114859E-2,3.420845419E-2,2.733621933E-2
1.599466590E-1,-2.809980139E-2,3.802636266E-2,2.733621933E-2
1.621831700E-1,-3.191770986E-2,3.573561832E-2,2.855795063E-2
1.644228550E-1,-4.306599870E-2,3.222314268E-2,2.962696366E-2
1.666553380E-1,-5.283984542E-2,3.008511290E-2,3.084869497E-2
1.688874550E-1,-5.787948146E-2,2.886338346E-2,3.191770986E-2
1.711292760E-1,-6.902777404E-2,2.550362423E-2,3.313944116E-2
1.733667030E-1,-7.910704613E-2,1.710422710E-2,3.543018550E-2
1.756035190E-1,-8.903361112E-2,1.252273750E-2,3.649919853E-2
1.778390540E-1,-9.896016866E-2,6.719517522E-3,3.878994286E-2
1.800750770E-1,-1.065959856E-1,-1.679879380E-3,4.001167417E-2
1.823118930E-1,-1.140790880E-1,-5.192354787E-3,3.985895589E-2
1.845452300E-1,-1.203404516E-1,-1.237002108E-2,4.108068720E-2
1.867730140E-1,-1.266018152E-1,-1.832595654E-2,4.092797264E-2
1.890213660E-1,-1.316414624E-1,-2.183843218E-2,4.214970022E-2
1.912592200E-1,-1.353066564E-1,-2.412917651E-2,4.581489414E-2
1.934983550E-1,-1.377501190E-1,-2.535090782E-2,4.077525437E-2
1.957305940E-1,-1.379028261E-1,-3.023782931E-2,4.199698567E-2
1.979668620E-1,-1.415680200E-1,-2.779436857E-2,4.199698567E-2
2.002034340E-1,-1.401935667E-1,-2.168571576E-2,4.199698567E-2
2.024403110E-1,-1.353066564E-1,-2.183843218E-2,4.337143153E-2
2.046765780E-1,-1.328631938E-1,-2.183843218E-2,4.459316283E-2
2.069132110E-1,-1.290452778E-1,-1.466076635E-2,4.214970022E-2
2.091506990E-1,-1.227839142E-1,-8.704829961E-3,4.108068720E-2
2.113861120E-1,-1.127046347E-1,-3.970623948E-3,3.985895589E-2
2.136227450E-1,-1.076650023E-1,5.650503561E-3,3.878994286E-2
2.158589510E-1,-9.758572280E-2,1.389718428E-2,4.016438872E-2
2.180955850E-1,-9.010262042E-2,1.985312067E-2,3.894266114E-2
2.203320960E-1,-7.895433158E-2,2.565634064E-2,3.909537569E-2
2.225684240E-1,-6.765332818E-2,3.145955876E-2,4.046982154E-2
2.248053010E-1,-5.650503561E-2,3.863722831E-2,4.184427112E-2
2.270426060E-1,-4.291328415E-2,4.444044828E-2,4.321871698E-2
2.292782020E-1,-3.405573592E-2,5.146539584E-2,4.321871698E-2
2.315145300E-1,-2.183843218E-2,5.253441259E-2,4.337143153E-2
2.337507970E-1,-9.468411095E-3,5.589416996E-2,4.596760869E-2
2.359874300E-1,4.581489484E-4,5.681046844E-2,4.841107130E-2
2.382242470E-1,7.941247895E-3,6.032294407E-2,5.100724846E-2
2.404605140E-1,2.015855350E-2,6.017022580E-2,4.993823543E-2
2.426971470E-1,2.748893574E-2,5.757404864E-2,5.238169432E-2
2.449343910E-1,3.604105115E-2,5.253441259E-2,5.238169432E-2
2.471700470E-1,4.459316283E-2,4.871650413E-2,5.742133409E-2
2.494066200E-1,5.192354694E-2,4.856378585E-2,5.986479297E-2
2.516427040E-1,5.558873713E-2,4.734205827E-2,6.352998316E-2
2.538794590E-1,5.910121277E-2,4.245513305E-2,6.597344577E-2
2.561157870E-1,6.520986557E-2,4.230241850E-2,6.734789163E-2
2.583524200E-1,6.887505949E-2,3.497203439E-2,6.979135424E-2
2.605892370E-1,7.116580009E-2,3.237585723E-2,7.345654815E-2
2.628269080E-1,7.483099401E-2,2.871066704E-2,7.956519723E-2
2.650634190E-1,7.345654815E-2,2.504547499E-2,8.445212245E-2
2.672987100E-1,7.101308554E-2,2.641992271E-2,8.811730891E-2
2.695347330E-1,6.963863969E-2,2.519819140E-2,9.422596544E-2
2.717709390E-1,7.086037099E-2,2.397646010E-2,9.911288321E-2
2.740076330E-1,6.582073122E-2,2.046398632E-2,1.064432710E-1
2.762445100E-1,6.200282276E-2,2.046398632E-2,1.137736514E-1
2.784813880E-1,5.711590126E-2,2.061670274E-2,1.172861308E-1
2.807186310E-1,5.207626149E-2,2.183843218E-2,1.270599663E-1
2.829536780E-1,4.474587739E-2,2.321287990E-2,1.343903542E-1
2.851902500E-1,3.985895589E-2,2.458732575E-2,1.392772794E-1
2.874265170E-1,3.115412779E-2,2.596177347E-2,1.464549452E-1
2.896625390E-1,2.382374369E-2,2.855795063E-2,1.513418704E-1
2.918970370E-1,1.756237634E-2,2.855795063E-2,1.574505121E-1
2.941350130E-1,5.345070735E-3,3.008511290E-2,1.597412676E-1
2.963688390E-1,-3.359758761E-3,3.145955876E-2,1.634064466E-1
2.986111480E-1,-1.206458826E-2,2.794708498E-2,1.656972021E-1
3.008458290E-1,-2.183843218E-2,2.809980139E-2,1.656972021E-1
3.030831940E-1,-3.054326214E-2,2.229658142E-2,1.655444801E-1
3.053184240E-1,-3.436116874E-2,1.878410578E-2,1.643227488E-1
3.075553010E-1,-4.413501546E-2,1.893682219E-2,1.605048478E-1
3.097919350E-1,-5.299255997E-2,1.175915636E-2,1.579086632E-1
3.120284460E-1,-5.665775016E-2,7.024950348E-3,1.542434692E-1
3.142650790E-1,-6.536258012E-2,2.290744567E-3,1.516472995E-1
3.165025060E-1,-6.658431143E-2,-0.000000000E0,1.492038369E-1
3.187345000E-1,-7.162395120E-2,-6.108652335E-3,1.467603743E-1
3.209617950E-1,-7.299839705E-2,-9.621127509E-3,1.418734491E-1
3.232104530E-1,-7.422012836E-2,-1.572977938E-2,1.404990107E-1
3.254472080E-1,-7.803803682E-2,-2.046398632E-2,1.356120855E-1
3.276870760E-1,-7.681630552E-2,-1.924225502E-2,1.343903542E-1
3.299202920E-1,-7.315111160E-2,-2.061670274E-2,1.368338168E-1
3.321571690E-1,-7.437284291E-2,-1.939497143E-2,1.356120855E-1
3.343945960E-1,-7.437284291E-2,-1.817324013E-2,1.343903542E-1
3.366307410E-1,-7.177666575E-2,-1.450804994E-2,1.368338168E-1
3.388662750E-1,-7.299839705E-2,-1.328631863E-2,1.343903542E-1
3.411023600E-1,-6.673702598E-2,-8.552113548E-3,1.333213449E-1
3.433389930E-1,-6.536258012E-2,-4.886921961E-3,1.357648075E-1
3.455758090E-1,-6.398813426E-2,2.290744567E-3,1.345430762E-1
3.478123810E-1,-6.017022580E-2,9.468411095E-3,1.334740520E-1
3.500489540E-1,-5.390885845E-2,1.786780916E-2,1.334740520E-1
3.522861970E-1,-4.993823543E-2,2.748893574E-2,1.336267740E-1
3.545215490E-1,-4.856378585E-2,3.359758854E-2,1.336267740E-1
3.567581210E-1,-4.474587739E-2,4.199698567E-2,1.311833113E-1
3.589942050E-1,-4.214970022E-2,5.039638281E-2,1.288925707E-1
3.612310830E-1,-4.062253982E-2,5.772676691E-2,1.240056455E-1
3.634675940E-1,-3.924809024E-2,6.490442902E-2,1.215621829E-1
3.657050820E-1,-3.924809024E-2,6.979135424E-2,1.191187203E-1
3.679451940E-1,-3.665191308E-2,7.223481685E-2,1.168279797E-1
3.701781040E-1,-3.634648025E-2,8.185594529E-2,1.107193232E-1
3.724137000E-1,-3.512475267E-2,8.552113175E-2,1.070541367E-1
3.746489900E-1,-3.512475267E-2,8.307767659E-2,1.033889428E-1
3.768865390E-1,-3.741549700E-2,8.674286306E-2,9.972374886E-2
3.791229280E-1,-3.619376570E-2,8.918632567E-2,9.605856240E-2
3.813597450E-1,-3.481931984E-2,9.269879758E-2,9.117163718E-2
3.835954020E-1,-3.604105115E-2,9.285151958E-2,8.750644326E-2
3.858290440E-1,-3.344487399E-2,9.392052889E-2,8.017606288E-2
3.880642740E-1,-3.848451003E-2,9.040805697E-2,7.773260027E-2
3.903055450E-1,-4.108068720E-2,8.567385375E-2,7.391469181E-2
3.925426670E-1,-3.970624134E-2,8.429940045E-2,6.902777404E-2
3.947796660E-1,-4.352414981E-2,8.323039114E-2,6.536258012E-2
3.970153230E-1,-4.841107130E-2,8.216137439E-2,6.047565863E-2
3.992518350E-1,-4.841107130E-2,7.849618047E-2,5.665775016E-2
4.014881630E-1,-5.345070735E-2,7.009678334E-2,5.054909736E-2
4.037246130E-1,-5.482515693E-2,6.520986557E-2,4.810563847E-2
4.059620390E-1,-5.726861581E-2,6.169738993E-2,4.306599870E-2
4.081987950E-1,-5.986479297E-2,5.803219974E-2,4.062253982E-2
4.104339630E-1,-6.352998316E-2,5.329799280E-2,3.695734590E-2
4.126702920E-1,-6.719517708E-2,5.451972410E-2,3.451388702E-2
4.149064980E-1,-6.979135424E-2,4.978551716E-2,2.580905706E-2
4.171434360E-1,-7.101308554E-2,4.734205827E-2,2.092213556E-2
4.193799470E-1,-7.590000331E-2,4.871650413E-2,1.725694351E-2
4.216165800E-1,-7.819075137E-2,4.749477282E-2,8.704829961E-3
4.238538240E-1,-8.185594529E-2,4.764748737E-2,2.443460980E-3
4.260862460E-1,-8.429940045E-2,4.764748737E-2,-4.886921961E-3
4.283141510E-1,-8.796459436E-2,4.642575979E-2,-1.099557430E-2
4.305623820E-1,-8.918632567E-2,4.535674304E-2,-1.710422710E-2
4.327960240E-1,-9.285151958E-2,4.169155285E-2,-2.703078650E-2
4.350264930E-1,-9.651670605E-2,4.306599870E-2,-3.680463135E-2
4.372717930E-1,-9.529497474E-2,3.817907721E-2,-4.657847434E-2
4.395086700E-1,-9.773843735E-2,3.451388702E-2,-5.528330430E-2
4.417487820E-1,-9.773843735E-2,3.329215571E-2,-6.139195710E-2
4.439808380E-1,-9.773843735E-2,2.855795063E-2,-7.116580009E-2
4.462178990E-1,-9.422596544E-2,2.351831272E-2,-7.849618047E-2
4.484542270E-1,-9.056077152E-2,1.863138936E-2,-8.582656831E-2
4.506881740E-1,-8.567385375E-2,1.374446787E-2,-9.193521738E-2
4.529153480E-1,-8.567385375E-2,1.130100712E-2,-9.560041130E-2
4.551637000E-1,-7.956519723E-2,7.483099122E-3,-1.004873365E-1
4.574006990E-1,-7.467827946E-2,2.596177394E-3,-1.041525230E-1
4.596408120E-1,-6.612616032E-2,-0.000000000E0,-1.076650023E-1
4.618734170E-1,-6.246097013E-2,-5.039638374E-3,-1.088867337E-1
4.641077310E-1,-5.283984542E-2,-1.237002108E-2,-1.101084575E-1
4.663382600E-1,-4.306599870E-2,-1.511891466E-2,-1.111774743E-1
4.685828890E-1,-3.558290005E-2,-1.634064503E-2,-1.099557430E-1
4.708194000E-1,-2.703078650E-2,-1.664607786E-2,-1.099557430E-1
4.730574370E-1,-2.092213556E-2,-1.542434748E-2,-1.061378345E-1
4.752923620E-1,-1.466076635E-2,-1.191187184E-2,-1.036943719E-1
4.775302160E-1,-6.108652335E-3,-9.773843922E-3,-9.987647086E-2
4.797667880E-1,1.374446787E-3,-3.817907767E-3,-9.621127695E-2
4.820018350E-1,7.635815535E-3,9.162978968E-4,-9.117163718E-2
4.842349280E-1,1.145372353E-2,9.315694682E-3,-8.628471941E-2
4.864627110E-1,1.404990070E-2,1.664607786E-2,-8.002334833E-2
4.887094760E-1,2.031126991E-2,2.260201424E-2,-7.391469181E-2
4.909395790E-1,2.657263726E-2,3.451388702E-2,-6.765332818E-2
4.931875040E-1,2.550362423E-2,4.306599870E-2,-6.154467165E-2
4.954221840E-1,2.428189293E-2,4.550946131E-2,-5.910121277E-2
4.976593660E-1,2.809980139E-2,5.024366826E-2,-5.528330430E-2
4.998936190E-1,2.703078650E-2,5.879577994E-2,-5.528330430E-2
5.021296420E-1,2.474004216E-2,6.368270516E-2,-5.283984542E-2
5.043668250E-1,2.474004216E-2,6.490442902E-2,-5.283984542E-2
5.066033970E-1,1.985312067E-2,6.872233748E-2,-5.650503561E-2
5.088369170E-1,1.878410578E-2,7.116580009E-2,-6.383541971E-2
5.110651280E-1,1.511891466E-2,7.116580009E-2,-7.009678334E-2
5.133140290E-1,8.857546374E-3,6.765332818E-2,-7.498370856E-2
5.155491980E-1,6.566801574E-3,6.887505949E-2,-8.353582025E-2
5.177865020E-1,2.901609987E-3,6.658431143E-2,-9.224065393E-2
5.200133700E-1,4.581489484E-4,6.291911751E-2,-1.056796908E-1
5.222584260E-1,-4.581489135E-3,5.574145541E-2,-1.166752651E-1
5.244952430E-1,-5.955935922E-3,4.856378585E-2,-1.290452778E-1
5.267338900E-1,-1.084285788E-2,4.260785133E-2,-1.412625909E-1
5.289684480E-1,-1.206458826E-2,3.772092983E-2,-1.511891484E-1
5.312056310E-1,-1.206458826E-2,3.527746722E-2,-1.634064466E-1
5.334409820E-1,-9.621127509E-3,3.039054573E-2,-1.756237596E-1
5.356776160E-1,-7.177666761E-3,2.672535367E-2,-1.853975952E-1
5.379138830E-1,-5.803219974E-3,2.916881628E-2,-1.939497143E-1
5.401505160E-1,-8.246680722E-3,2.916881628E-2,-2.025018334E-1
5.423870880E-1,-5.650503561E-3,3.634648025E-2,-2.073887438E-1
5.446236610E-1,-4.581489484E-4,4.123340547E-2,-2.134974003E-1
5.468605380E-1,-1.527163084E-3,4.963280261E-2,-2.196060568E-1
5.490980870E-1,1.221730490E-3,6.047565863E-2,-2.231185287E-1
5.513343540E-1,3.817907767E-3,7.024950534E-2,-2.243402600E-1
5.535696450E-1,3.970623948E-3,7.864890248E-2,-2.267837226E-1
5.558027380E-1,4.276056774E-3,9.086620808E-2,-2.278527319E-1
5.580302770E-1,4.581489135E-3,1.029307917E-1,-2.278527319E-1
5.602788730E-1,7.330383174E-3,1.186605766E-1,-2.289217561E-1
5.625155060E-1,8.704829961E-3,1.295034289E-1,-2.252565622E-1
5.647553140E-1,1.145372353E-2,1.404990107E-1,-2.264782935E-1
5.669896270E-1,9.162978269E-3,1.502728462E-1,-2.251038402E-1
5.692249790E-1,9.468411095E-3,1.635591686E-1,-2.226603776E-1
5.714615510E-1,1.572977938E-2,1.756237596E-1,-2.212859392E-1
5.736978800E-1,1.588249579E-2,1.815796942E-1,-2.176207453E-1
5.759347570E-1,1.588249579E-2,1.852448881E-1,-2.151772827E-1
5.781712680E-1,1.725694351E-2,1.876883507E-1,-2.163990140E-1
5.804075960E-1,1.847867295E-2,1.912008226E-1,-2.127338201E-1
5.826436180E-1,2.336559631E-2,1.899790913E-1,-2.125810981E-1
5.848754910E-1,2.458732575E-2,1.899790913E-1,-2.125810981E-1
5.871050450E-1,2.703078650E-2,1.875356287E-1,-2.101376504E-1
5.893533970E-1,3.436116874E-2,1.812742651E-1,-2.089159191E-1
5.915907010E-1,3.787364438E-2,1.763873398E-1,-2.064724565E-1
5.938295330E-1,3.894266114E-2,1.690569520E-1,-2.040289938E-1
5.960631750E-1,4.612032697E-2,1.627955884E-1,-2.028072625E-1
5.982996250E-1,5.222897977E-2,1.566869318E-1,-1.991420686E-1
6.005334500E-1,5.803219974E-2,1.420261711E-1,-1.954768747E-1
6.027623940E-1,6.520986557E-2,1.357648075E-1,-1.904372424E-1
6.050094030E-1,7.483099401E-2,1.270599663E-1,-1.855503172E-1
6.072457310E-1,8.216137439E-2,1.207986027E-1,-1.794416606E-1
6.094845610E-1,8.689557761E-2,1.122464910E-1,-1.745547503E-1
6.117182650E-1,9.636399150E-2,9.987647086E-2,-1.682933718E-1
6.139548990E-1,1.023199260E-1,9.254608303E-2,-1.609629989E-1
6.161915320E-1,1.119410545E-1,8.139779419E-2,-1.572978050E-1
6.184283480E-1,1.166752651E-1,7.162395120E-2,-1.499674171E-1
6.206656530E-1,1.226311997E-1,6.658431143E-2,-1.424843222E-1
6.229019200E-1,1.285871267E-1,5.925392732E-2,-1.375973970E-1
6.251372720E-1,1.333213449E-1,5.558873713E-2,-1.302670091E-1
6.273736610E-1,1.343903542E-1,4.825835302E-2,-1.229366288E-1
6.296101720E-1,1.404990107E-1,4.444044828E-2,-1.168279797E-1
6.318468050E-1,1.417207420E-1,4.566217586E-2,-1.105666086E-1
6.340833160E-1,1.440114826E-1,4.444044828E-2,-1.069014147E-1
6.363199500E-1,1.440114826E-1,4.077525437E-2,-9.957103431E-2
6.385574990E-1,1.426370293E-1,4.077525437E-2,-9.224065393E-2
6.407927890E-1,1.463022232E-1,4.184427112E-2,-8.735372871E-2
6.430291780E-1,1.452332139E-1,4.550946131E-2,-8.246681094E-2
6.452654460E-1,1.401935667E-1,4.566217586E-2,-7.635815442E-2
6.475022620E-1,1.400408596E-1,4.199698567E-2,-7.269296050E-2
6.497386510E-1,1.351539344E-1,4.092797264E-2,-6.658431143E-2
6.519752840E-1,1.325577646E-1,3.970624134E-2,-6.185010448E-2
6.542093540E-1,1.288925707E-1,3.985895589E-2,-5.329799280E-2
6.564376870E-1,1.250746548E-1,3.863722831E-2,-4.841107130E-2
6.586850010E-1,1.175915599E-1,3.512475267E-2,-4.352414981E-2
6.609214510E-1,1.162171140E-1,3.283400834E-2,-3.863722831E-2
6.631605250E-1,1.113301888E-1,3.039054573E-2,-3.390302137E-2
6.653943520E-1,1.073595658E-1,2.443460934E-2,-2.657263726E-2
6.676306190E-1,1.010981947E-1,1.847867295E-2,-2.061670274E-2
6.698670080E-1,9.468411654E-2,9.010262787E-3,-1.328631863E-2
6.721038850E-1,9.208793938E-2,4.123340361E-3,-5.955935922E-3
6.743414340E-1,8.445212245E-2,-3.054326167E-3,1.221730490E-3
6.765767860E-1,8.185594529E-2,-1.145372353E-2,7.330383174E-3
6.788131140E-1,7.544185966E-2,-2.229658142E-2,1.206458826E-2
6.810494420E-1,6.902777404E-2,-3.298672289E-2,1.939497143E-2
6.832865020E-1,6.398813426E-2,-3.665191308E-2,2.779436857E-2
6.855229530E-1,5.772676691E-2,-4.016438872E-2,3.145955876E-2
6.877595860E-1,5.390885845E-2,-4.489859566E-2,3.878994286E-2
6.899956700E-1,4.382958263E-2,-4.948008433E-2,4.718934000E-2
6.922335240E-1,3.878994286E-2,-5.436700583E-2,5.085453019E-2
6.944697910E-1,3.619376570E-2,-5.787948146E-2,5.574145541E-2
6.967055090E-1,2.871066704E-2,-5.894849449E-2,6.169738993E-2
6.989415320E-1,2.260201424E-2,-5.635231733E-2,6.902777404E-2
7.011781040E-1,1.771509275E-2,-5.268712714E-2,7.269296050E-2
7.034119290E-1,1.160643995E-2,-5.131268129E-2,7.513642311E-2
7.056413610E-1,1.038470957E-2,-4.764748737E-2,8.002334833E-2
7.078953890E-1,7.941247895E-3,-4.520402849E-2,8.124507964E-2
7.101253090E-1,4.276056774E-3,-4.398229718E-2,8.475755155E-2
7.123636500E-1,-6.108652451E-4,-4.138612002E-2,8.597928286E-2
7.145954010E-1,-1.679879380E-3,-3.772092983E-2,8.842274547E-2
7.168332560E-1,-4.276056774E-3,-3.649919853E-2,8.964447677E-2
7.190699500E-1,-6.566801574E-3,-3.283400834E-2,9.086620808E-2
7.213067050E-1,-7.788531948E-3,-3.039054573E-2,8.964447677E-2
7.235430940E-1,-7.788531948E-3,-3.039054573E-2,9.086620808E-2
7.257800330E-1,-1.023199316E-2,-2.779436857E-2,9.453139454E-2
7.280174600E-1,-1.023199316E-2,-2.550362423E-2,9.330966324E-2
7.302528110E-1,-1.007927675E-2,-2.183843218E-2,9.575312585E-2
7.324891390E-1,-1.130100712E-2,-2.306016348E-2,9.575312585E-2
7.347253450E-1,-1.252273750E-2,-1.939497143E-2,9.575312585E-2
7.369619790E-1,-1.114829071E-2,-1.572977938E-2,9.575312585E-2
7.391986120E-1,-1.237002108E-2,-1.206458826E-2,9.468411654E-2
7.414351840E-1,-1.588249579E-2,-7.177666761E-3,9.330966324E-2
7.436720000E-1,-1.954768784E-2,-5.803219974E-3,9.208793938E-2
7.459105260E-1,-2.061670274E-2,1.527163084E-3,8.964447677E-2
7.481505160E-1,-2.183843218E-2,6.414085161E-3,8.842274547E-2
7.503811680E-1,-2.168571576E-2,9.926560335E-3,8.597928286E-2
7.526173130E-1,-2.764165215E-2,1.618792862E-2,8.231408894E-2
7.548526030E-1,-3.130684420E-2,1.863138936E-2,7.987063378E-2
7.570903970E-1,-3.237585723E-2,2.596177347E-2,7.498370856E-2
7.593270300E-1,-3.588833287E-2,2.962696366E-2,7.009678334E-2
7.615638460E-1,-3.955352306E-2,3.344487399E-2,6.765332818E-2
7.638014560E-1,-4.199698567E-2,3.588833287E-2,6.154467165E-2
7.660377840E-1,-4.688390717E-2,3.711006418E-2,5.787948146E-2
7.682733190E-1,-4.795292020E-2,3.726277873E-2,5.406157300E-2
7.705064730E-1,-4.810563847E-2,3.359758854E-2,5.039638281E-2
7.727341350E-1,-5.054909736E-2,2.993239649E-2,4.673119262E-2
7.749822420E-1,-5.177082866E-2,3.115412779E-2,4.184427112E-2
7.772191200E-1,-5.177082866E-2,2.641992271E-2,3.695734590E-2
7.794588660E-1,-5.558873713E-2,2.031126991E-2,3.436116874E-2
7.816904330E-1,-5.681046844E-2,1.924225502E-2,2.947424725E-2
7.839171180E-1,-5.803219974E-2,1.557706390E-2,2.458732575E-2
7.861651650E-1,-5.940664560E-2,1.191187184E-2,1.970040426E-2
7.884014320E-1,-5.574145541E-2,7.024950348E-3,1.359175146E-2
7.906409330E-1,-5.345070735E-2,9.162978968E-4,1.114829071E-2
7.928746370E-1,-5.467243865E-2,-3.970623948E-3,6.108652335E-3
7.951112100E-1,-5.100724846E-2,-8.857546374E-3,0.000000000E0
7.973480870E-1,-4.749477282E-2,-1.374446787E-2,-3.512475174E-3
7.995823400E-1,-4.382958263E-2,-1.740965992E-2,-5.955935922E-3
8.018086580E-1,-3.772092983E-2,-2.244929783E-2,-9.621127509E-3
8.040569490E-1,-3.161227703E-2,-2.626720630E-2,-8.399397135E-3
8.062932780E-1,-2.550362423E-2,-2.993239649E-2,-1.084285788E-2
8.085331460E-1,-1.802052557E-2,-2.519819140E-2,-9.468411095E-3
8.107667270E-1,-1.313360315E-2,-2.535090782E-2,-8.246680722E-3
8.130030550E-1,-5.650503561E-3,-2.306016348E-2,-9.315694682E-3
8.152398710E-1,3.054326167E-3,-1.954768784E-2,-9.315694682E-3
8.174771150E-1,1.175915636E-2,-1.496619824E-2,-9.162978269E-3
8.197124670E-1,1.786780916E-2,-1.145372353E-2,-7.941247895E-3
8.219487950E-1,2.306016348E-2,-1.832595794E-3,-6.566801574E-3
8.241806670E-1,2.687807009E-2,5.345070735E-3,-5.345070735E-3
8.264041780E-1,3.313944116E-2,1.252273750E-2,-3.970623948E-3
8.286586340E-1,3.817907721E-2,1.603521220E-2,-3.970623948E-3
8.308952060E-1,4.184427112E-2,2.092213556E-2,-1.527163084E-3
8.331364780E-1,4.444044828E-2,2.443460934E-2,-1.374446787E-3
8.353695100E-1,4.948008433E-2,2.916881628E-2,1.069014193E-3
8.376055330E-1,4.948008433E-2,3.283400834E-2,1.069014193E-3
8.398408850E-1,5.207626149E-2,3.649919853E-2,2.290744567E-3
8.420772130E-1,4.963280261E-2,4.016438872E-2,-1.527163113E-4
8.443137850E-1,5.100724846E-2,4.260785133E-2,-1.221730490E-3
8.465504180E-1,4.841107130E-2,4.016438872E-2,1.069014193E-3
8.487869910E-1,4.474587739E-2,4.138612002E-2,-5.039638374E-3
8.510238070E-1,4.108068720E-2,4.031710699E-2,-3.817907767E-3
8.532611120E-1,3.863722831E-2,4.276056588E-2,-6.261368748E-3
8.554964630E-1,3.619376570E-2,3.924809024E-2,-9.926560335E-3
8.577330360E-1,3.130684420E-2,3.680463135E-2,-1.252273750E-2
8.599693030E-1,2.748893574E-2,3.573561832E-2,-1.374446787E-2
8.622059360E-1,2.855795063E-2,2.840523422E-2,-1.618792862E-2
8.644425080E-1,2.611448988E-2,2.489275858E-2,-2.000583708E-2
8.666760900E-1,2.489275858E-2,2.367102914E-2,-2.122756653E-2
8.689039340E-1,1.725694351E-2,1.282817032E-2,-2.611448988E-2
8.711529580E-1,1.603521220E-2,1.175915636E-2,-2.993239649E-2
8.733885530E-1,1.603521220E-2,9.315694682E-3,-2.993239649E-2
8.756280560E-1,1.725694351E-2,6.872233935E-3,-3.237585723E-2
8.778612710E-1,1.466076635E-2,3.207042580E-3,-3.359758854E-2
8.800982090E-1,1.084285788E-2,-3.054326226E-4,-3.237585723E-2
8.823342930E-1,1.084285788E-2,-3.970623948E-3,-2.993239649E-2
8.845709260E-1,1.328631863E-2,-7.635815535E-3,-3.115412779E-2
8.868076820E-1,1.206458826E-2,-5.192354787E-3,-3.115412779E-2
8.890451080E-1,1.450804994E-2,-6.414085161E-3,-2.993239649E-2
8.912806430E-1,1.435533352E-2,-8.857546374E-3,-2.993239649E-2
8.935169710E-1,1.298088674E-2,-1.496619824E-2,-2.626720630E-2
8.957532990E-1,1.435533352E-2,-1.374446787E-2,-2.993239649E-2
8.979900550E-1,1.298088674E-2,-1.618792862E-2,-2.871066704E-2
9.002264440E-1,1.298088674E-2,-1.863138936E-2,-2.748893574E-2
9.024629550E-1,1.420261711E-2,-2.107485011E-2,-2.748893574E-2
9.046965970E-1,1.282817032E-2,-2.351831272E-2,-2.519819140E-2
9.069254180E-1,1.282817032E-2,-2.703078650E-2,-2.397646010E-2
9.091734650E-1,1.023199316E-2,-2.825251780E-2,-2.397646010E-2
9.114090610E-1,1.145372353E-2,-2.825251780E-2,-2.397646010E-2
9.136480740E-1,1.023199316E-2,-3.069597855E-2,-2.275473066E-2
9.158816560E-1,9.010262787E-3,-3.069597855E-2,-2.031126991E-2
9.181182290E-1,6.566801574E-3,-3.054326214E-2,-2.031126991E-2
9.203548620E-1,5.192354787E-3,-3.298672289E-2,-2.031126991E-2
9.225916780E-1,1.527163084E-3,-3.420845419E-2,-1.664607786E-2
9.248290440E-1,1.527163084E-3,-3.543018550E-2,-1.420261711E-2
9.270645790E-1,1.374446787E-3,-3.772092983E-2,-1.420261711E-2
9.293008460E-1,1.374446787E-3,-4.016438872E-2,-1.557706390E-2
9.315369300E-1,-1.069014193E-3,-4.138612002E-2,-1.435533352E-2
9.337737460E-1,2.596177394E-3,-4.016438872E-2,-1.420261711E-2
9.360103180E-1,2.443460980E-3,-4.627304152E-2,-1.557706390E-2
9.382467080E-1,4.886921961E-3,-4.749477282E-2,-1.557706390E-2
9.404835850E-1,3.665191587E-3,-4.993823543E-2,-1.924225502E-2
9.427210730E-1,6.108652335E-3,-4.993823543E-2,-2.046398632E-2
9.449564850E-1,9.773843922E-3,-5.131268129E-2,-2.397646010E-2
9.471930580E-1,1.466076635E-2,-5.497787148E-2,-2.519819140E-2
9.494292640E-1,2.199114859E-2,-6.001751125E-2,-2.641992271E-2
9.516658970E-1,2.199114859E-2,-6.123924255E-2,-3.130684420E-2
9.539024080E-1,2.809980139E-2,-6.139195710E-2,-3.497203439E-2
9.561387360E-1,3.420845419E-2,-6.383541971E-2,-3.497203439E-2
9.583756750E-1,4.169155285E-2,-6.520986557E-2,-3.848451003E-2
9.606131630E-1,4.917465150E-2,-6.169738993E-2,-4.214970022E-2
9.628485140E-1,5.528330430E-2,-6.307183951E-2,-4.444044828E-2
9.650849030E-1,6.032294407E-2,-6.078109145E-2,-4.444044828E-2
9.673213540E-1,6.398813426E-2,-5.726861581E-2,-4.688390717E-2
9.695568880E-1,7.269296050E-2,-5.375614017E-2,-5.161811411E-2
9.717901040E-1,8.017606288E-2,-5.390885845E-2,-5.283984542E-2
9.740306430E-1,9.010262042E-2,-4.673119262E-2,-5.390885845E-2
9.762679480E-1,9.392052889E-2,-4.199698567E-2,-5.513058975E-2
9.785063510E-1,9.773843735E-2,-3.726277873E-2,-5.757404864E-2
9.807416420E-1,1.029307917E-1,-2.764165215E-2,-5.742133409E-2
9.829768100E-1,1.055269688E-1,-2.046398632E-2,-5.619960278E-2
9.852130160E-1,1.093448773E-1,-1.191187184E-2,-5.482515693E-2
9.874497720E-1,1.107193232E-1,-1.069014193E-3,-5.360342562E-2
9.896863440E-1,1.108720452E-1,3.817907767E-3,-5.360342562E-2
9.919227330E-1,1.110247597E-1,1.343903504E-2,-5.345070735E-2
9.941571080E-1,1.137736514E-1,2.428189293E-2,-4.978551716E-2
9.963873940E-1,1.101084575E-1,2.932153270E-2,-4.978551716E-2
9.986292150E-1,1.114829108E-1,3.283400834E-2,-4.734205827E-2
1.000854862E0,1.078177169E-1,3.665191308E-2,-4.489859566E-2
1.003107425E0,1.004873365E-1,4.520402849E-2,-4.245513305E-2
1.005338748E0,9.437867999E-2,4.780020565E-2,-4.245513305E-2
1.007568118E0,8.827003092E-2,5.039638281E-2,-4.260785133E-2
1.009802432E0,8.475755155E-2,5.772676691E-2,-3.894266114E-2
1.012040286E0,7.605272532E-2,5.177082866E-2,-4.016438872E-2
1.014292057E0,6.734789163E-2,5.192354694E-2,-3.665191308E-2
1.016526920E0,5.879577994E-2,5.085453019E-2,-3.665191308E-2
1.018763676E0,5.253441259E-2,4.856378585E-2,-3.680463135E-2
1.020996830E0,4.505131021E-2,4.627304152E-2,-3.558290005E-2
1.023233707E0,3.512475267E-2,4.046982154E-2,-3.329215571E-2
1.025470340E0,3.008511290E-2,3.573561832E-2,-3.329215571E-2
1.027706913E0,2.382374369E-2,3.100141138E-2,-2.977968007E-2
1.029943546E0,1.511891466E-2,2.748893574E-2,-2.733621933E-2
1.032181034E0,1.007927675E-2,2.397646010E-2,-2.733621933E-2
1.034416385E0,3.970623948E-3,2.168571576E-2,-2.382374369E-2
1.036652958E0,-1.069014193E-3,1.802052557E-2,-2.015855350E-2
1.038888920E0,-2.443460980E-3,1.084285788E-2,-1.527163107E-2
1.041125553E0,-5.039638374E-3,1.084285788E-2,-1.053742506E-2
1.043362125E0,-1.130100712E-2,6.108652335E-3,-5.650503561E-3
1.045598758E0,-1.389718428E-2,2.596177394E-3,4.581489484E-4
1.047835148E0,-1.389718428E-2,5.039638374E-3,6.566801574E-3
1.050071231E0,-1.893682219E-2,3.054326226E-4,1.389718428E-2
1.052309513E0,-2.153299935E-2,-9.162978968E-4,2.000583708E-2
1.054544253E0,-2.015855350E-2,5.039638374E-3,2.733621933E-2
1.056778507E0,-2.153299935E-2,2.748893574E-3,3.588833287E-2
1.059017887E0,-2.275473066E-2,5.192354787E-3,3.955352306E-2
1.061254215E0,-2.519819140E-2,5.192354787E-3,4.199698567E-2
1.063491641E0,-2.764165215E-2,8.857546374E-3,4.810563847E-2
1.065725467E0,-2.748893574E-2,1.496619824E-2,5.421429127E-2
1.067956424E0,-2.871066704E-2,1.863138936E-2,6.032294407E-2
1.070200443E0,-3.130684420E-2,1.740965992E-2,6.276640296E-2
1.072437381E0,-3.359758854E-2,2.229658142E-2,6.520986557E-2
1.074675357E0,-3.726277873E-2,2.489275858E-2,6.643159688E-2
1.076910038E0,-3.726277873E-2,2.733621933E-2,6.765332818E-2
1.079146244E0,-3.970624134E-2,2.977968007E-2,7.009678334E-2
1.081382877E0,-4.077525437E-2,3.222314268E-2,7.009678334E-2
1.083619449E0,-4.581489414E-2,3.222314268E-2,7.254024595E-2
1.085856754E0,-4.932736978E-2,3.604105115E-2,7.131851465E-2
1.088092167E0,-5.314527452E-2,3.008511290E-2,7.360926270E-2
1.090329044E0,-5.558873713E-2,3.375030309E-2,7.238753140E-2
1.092565311E0,-5.803219974E-2,3.375030309E-2,6.994406879E-2
1.094801944E0,-6.047565863E-2,3.497203439E-2,7.238753140E-2
1.097038395E0,-6.291911751E-2,3.863722831E-2,7.116580009E-2
1.099271854E0,-6.780604273E-2,3.634648025E-2,7.101308554E-2
1.101500186E0,-7.284568250E-2,3.405573592E-2,7.101308554E-2
1.103749088E0,-7.528914511E-2,3.405573592E-2,7.101308554E-2
1.105985538E0,-7.406741381E-2,3.405573592E-2,7.101308554E-2
1.108228825E0,-7.773260027E-2,3.298672289E-2,6.979135424E-2
1.110457096E0,-7.895433158E-2,3.298672289E-2,6.612616032E-2
1.112693973E0,-8.277224004E-2,2.932153270E-2,6.475171447E-2
1.114928958E0,-8.277224004E-2,2.458732575E-2,6.352998316E-2
1.117166568E0,-8.521570265E-2,2.580905706E-2,6.230825558E-2
1.119403385E0,-8.521570265E-2,2.458732575E-2,5.864306539E-2
1.121639774E0,-9.025534242E-2,2.229658142E-2,5.742133409E-2
1.123872501E0,-9.025534242E-2,1.863138936E-2,5.497787148E-2
1.126112979E0,-9.040805697E-2,1.374446787E-2,5.497787148E-2
1.128349247E0,-8.781187981E-2,1.374446787E-2,5.375614017E-2
1.130586795E0,-8.552113175E-2,1.007927675E-2,4.886921868E-2
1.132822330E0,-8.429940045E-2,7.635815535E-3,4.764748737E-2
1.135058658E0,-8.185594529E-2,2.596177394E-3,4.398229718E-2
1.137295536E0,-8.185594529E-2,1.527163084E-3,4.276056588E-2
1.139532779E0,-8.078692853E-2,-4.581489135E-3,4.016438872E-2
1.141768192E0,-7.467827946E-2,-8.399397135E-3,3.665191308E-2
1.144004764E0,-7.101308554E-2,-1.084285788E-2,3.298672289E-2
1.146241092E0,-6.490442902E-2,-1.343903504E-2,3.176499158E-2
1.148477909E0,-6.123924255E-2,-1.343903504E-2,2.809980139E-2
1.150714237E0,-5.375614017E-2,-1.481348183E-2,2.443460934E-2
1.152950748E0,-4.886921868E-2,-1.985312067E-2,1.970040426E-2
1.155187381E0,-4.031710699E-2,-2.122756653E-2,1.481348183E-2
1.157424930E0,-3.054326214E-2,-2.504547499E-2,1.359175146E-2
1.159660282E0,-2.428189293E-2,-2.275473066E-2,1.130100712E-2
1.161896915E0,-1.450804994E-2,-2.412917651E-2,8.857546374E-3
1.164132816E0,-5.650503561E-3,-1.817324013E-2,6.566801574E-3
1.166368595E0,4.581489484E-4,-2.076941915E-2,5.345070735E-3
1.168605167E0,9.010262787E-3,-1.725694351E-2,4.276056774E-3
1.170834232E0,2.015855350E-2,-2.000583708E-2,6.108652451E-4
1.173067813E0,2.641992271E-2,-1.771509275E-2,-1.679879380E-3
1.175316715E0,3.375030309E-2,-1.893682219E-2,-2.901609987E-3
1.177553715E0,4.489859566E-2,-1.924225502E-2,-8.857546374E-3
1.179791691E0,5.726861581E-2,-1.710422710E-2,-1.130100712E-2
1.182024967E0,6.215553731E-2,-1.343903504E-2,-1.114829071E-2
1.184261600E0,6.841690838E-2,-1.237002108E-2,-1.359175146E-2
1.186498417E0,7.330382615E-2,-1.252273750E-2,-1.725694351E-2
1.188734745E0,7.941248268E-2,-1.496619824E-2,-1.970040426E-2
1.190971622E0,8.704829961E-2,-7.941247895E-3,-2.321287990E-2
1.193209110E0,9.086620808E-2,-4.276056774E-3,-2.687807009E-2
1.195445499E0,9.453139454E-2,-7.635815418E-4,-2.916881628E-2
1.197678043E0,9.972374886E-2,3.970623948E-3,-3.283400834E-2
1.199902591E0,1.009454802E-1,5.192354787E-3,-3.405573592E-2
1.202143375E0,1.049161032E-1,1.481348183E-2,-4.016438872E-2
1.204390262E0,1.036943719E-1,1.603521220E-2,-4.260785133E-2
1.206630009E0,1.049161032E-1,1.847867295E-2,-4.505131021E-2
1.208865971E0,1.050688252E-1,2.336559631E-2,-4.856378585E-2
1.211100956E0,1.087340117E-1,2.321287990E-2,-4.978551716E-2
1.213336246E0,1.075122803E-1,1.832595654E-2,-4.856378585E-2
1.215572940E0,1.088867337E-1,2.565634064E-2,-5.345070735E-2
1.217809147E0,1.062905490E-1,2.199114859E-2,-5.849034712E-2
1.220045719E0,1.026253626E-1,2.458732575E-2,-5.726861581E-2
1.222282108E0,1.001819000E-1,2.336559631E-2,-5.849034712E-2
1.224518924E0,9.773843735E-2,2.351831272E-2,-5.971207842E-2
1.226755741E0,9.529497474E-2,2.351831272E-2,-6.093380973E-2
1.228992862E0,9.162978828E-2,2.351831272E-2,-6.337726861E-2
1.231228397E0,8.781187981E-2,1.511891466E-2,-6.108652428E-2
1.233464908E0,8.643743396E-2,1.267545391E-2,-6.108652428E-2
1.235700137E0,8.277224004E-2,1.038470957E-2,-6.108652428E-2
1.237934147E0,7.895433158E-2,3.207042580E-3,-5.879577994E-2
1.240174137E0,7.513642311E-2,1.985311974E-3,-5.757404864E-2
1.242410770E0,7.009678334E-2,-2.748893574E-3,-5.635231733E-2
1.244648501E0,6.261368841E-2,-1.221730467E-2,-5.528330430E-2
1.246884891E0,6.612616032E-2,-1.603521220E-2,-5.528330430E-2
1.249120182E0,6.475171447E-2,-2.443460934E-2,-5.283984542E-2
1.251356571E0,5.726861581E-2,-3.039054573E-2,-5.177082866E-2
1.253593143E0,5.711590126E-2,-3.772092983E-2,-5.177082866E-2
1.255830021E0,5.207626149E-2,-4.001167417E-2,-4.810563847E-2
1.258066593E0,4.825835302E-2,-4.474587739E-2,-4.566217586E-2
1.260302799E0,4.688390717E-2,-4.963280261E-2,-4.214970022E-2
1.262539493E0,4.321871698E-2,-5.192354694E-2,-4.092797264E-2
1.264774051E0,4.444044828E-2,-4.825835302E-2,-3.726277873E-2
1.266999820E0,3.833179548E-2,-4.459316283E-2,-3.604105115E-2
1.269248722E0,4.321871698E-2,-4.825835302E-2,-3.237585723E-2
1.271485111E0,4.077525437E-2,-4.581489414E-2,-2.871066704E-2
1.273724918E0,4.321871698E-2,-4.108068720E-2,-2.489275858E-2
1.275958438E0,4.199698567E-2,-4.092797264E-2,-2.489275858E-2
1.278194889E0,4.459316283E-2,-3.863722831E-2,-2.000583708E-2
1.280431583E0,4.566217586E-2,-3.863722831E-2,-1.389718428E-2
1.282669071E0,4.703662544E-2,-3.497203439E-2,-9.010262787E-3
1.284904361E0,4.825835302E-2,-3.390302137E-2,-5.345070735E-3
1.287140751E0,4.948008433E-2,-3.390302137E-2,-4.123340361E-3
1.289377018E0,5.177082866E-2,-3.512475267E-2,2.138028387E-3
1.291613895E0,5.421429127E-2,-3.634648025E-2,3.359758761E-3
1.293850467E0,5.665775016E-2,-3.772092983E-2,5.803219974E-3
1.296086856E0,5.787948146E-2,-3.894266114E-2,1.069014147E-2
1.298323856E0,5.894849449E-2,-4.505131021E-2,1.313360315E-2
1.300560917E0,6.001751125E-2,-4.871650413E-2,1.557706390E-2
1.302796451E0,6.383541971E-2,-4.749477282E-2,2.046398632E-2
1.305032535E0,6.490442902E-2,-4.871650413E-2,2.168571576E-2
1.307269169E0,6.612616032E-2,-4.871650413E-2,2.290744707E-2
1.309505924E0,6.979135424E-2,-5.009094998E-2,2.412917651E-2
1.311742374E0,7.238753140E-2,-4.764748737E-2,2.672535367E-2
1.313978641E0,7.345654815E-2,-5.009094998E-2,3.039054573E-2
1.316214786E0,7.223481685E-2,-4.764748737E-2,3.283400834E-2
1.318453251E0,7.605272532E-2,-4.657847434E-2,3.649919853E-2
1.320688358E0,8.093964309E-2,-4.657847434E-2,3.772092983E-2
1.322925113E0,8.093964309E-2,-4.535674304E-2,4.138612002E-2
1.325160892E0,8.338310570E-2,-4.550946131E-2,4.382958263E-2
1.327397831E0,8.338310570E-2,-4.673119262E-2,4.260785133E-2
1.329634342E0,8.582656831E-2,-4.550946131E-2,4.520402849E-2
1.331870731E0,8.704829961E-2,-4.550946131E-2,5.009094998E-2
1.334105960E0,8.827003092E-2,-4.184427112E-2,5.009094998E-2
1.336338809E0,8.827003092E-2,-4.184427112E-2,5.375614017E-2
1.338581668E0,9.315694869E-2,-4.199698567E-2,5.497787148E-2
1.340816776E0,9.315694869E-2,-4.077525437E-2,5.742133409E-2
1.343054691E0,9.071348608E-2,-4.199698567E-2,5.742133409E-2
1.345289615E0,8.949175477E-2,-4.321871698E-2,5.619960278E-2
1.347526554E0,8.582656831E-2,-3.695734590E-2,5.619960278E-2
1.349763065E0,8.720101416E-2,-3.588833287E-2,5.619960278E-2
1.351999637E0,8.704829961E-2,-3.711006418E-2,5.742133409E-2
1.354233951E0,8.582656831E-2,-3.695734590E-2,5.497787148E-2
1.356460514E0,8.353582025E-2,-3.573561832E-2,5.375614017E-2
1.358708927E0,7.727445662E-2,-3.680463135E-2,5.253441259E-2
1.360945438E0,7.849618047E-2,-4.169155285E-2,5.360342562E-2
1.363184878E0,7.605272532E-2,-3.924809024E-2,4.871650413E-2
1.365418094E0,7.116580009E-2,-3.787364438E-2,4.749477282E-2
1.367651859E0,6.750060618E-2,-3.787364438E-2,4.505131021E-2
1.369875247E0,6.261368841E-2,-3.772092983E-2,4.260785133E-2
1.372110965E0,6.017022580E-2,-3.772092983E-2,4.001167417E-2
1.374364139E0,5.772676691E-2,-3.772092983E-2,3.634648025E-2
1.376603947E0,5.406157300E-2,-3.390302137E-2,3.634648025E-2
1.378841739E0,4.917465150E-2,-3.023782931E-2,3.390302137E-2
1.381073917E0,4.810563847E-2,-2.901609987E-2,3.023782931E-2
1.383310428E0,4.444044828E-2,-2.290744707E-2,2.779436857E-2
1.385546940E0,4.092797264E-2,-2.031126991E-2,2.901609987E-2
1.387783634E0,3.481931984E-2,-1.664607786E-2,2.764165215E-2
1.390021122E0,3.359758854E-2,-1.175915636E-2,2.764165215E-2
1.392256473E0,2.748893574E-2,-1.038470957E-2,2.886338346E-2
1.394493106E0,2.153299935E-2,-4.276056774E-3,2.764165215E-2
1.396729313E0,1.664607786E-2,1.985311974E-3,2.886338346E-2
1.398961857E0,1.420261711E-2,4.428773187E-3,3.008511290E-2
1.401186100E0,1.313360315E-2,9.315694682E-3,3.130684420E-2
1.403438724E0,1.191187184E-2,1.298088674E-2,3.252857551E-2
1.405675479E0,7.024950348E-3,1.191187184E-2,3.497203439E-2
1.407917544E0,8.246680722E-3,1.069014147E-2,3.619376570E-2
1.410149601E0,3.359758761E-3,1.557706390E-2,3.985895589E-2
1.412385196E0,-1.679879380E-3,1.450804994E-2,4.092797264E-2
1.414621158E0,-1.679879380E-3,1.328631863E-2,3.970624134E-2
1.416857731E0,-5.345070735E-3,1.328631863E-2,4.337143153E-2
1.419094303E0,-1.145372353E-2,1.343903504E-2,4.214970022E-2
1.421330875E0,-1.649336144E-2,7.483099122E-3,4.077525437E-2
1.423567508E0,-2.031126991E-2,3.054326226E-4,3.955352306E-2
1.425802249E0,-2.275473066E-2,2.748893574E-3,3.833179548E-2
1.428029178E0,-2.535090782E-2,-3.359758761E-3,3.817907721E-2
1.430276981E0,-3.161227703E-2,-8.093964309E-3,3.695734590E-2
1.432513065E0,-3.527746722E-2,-1.038470957E-2,3.695734590E-2
1.434752873E0,-3.543018550E-2,-1.527163107E-2,3.329215571E-2
1.436985111E0,-4.169155285E-2,-2.000583708E-2,3.313944116E-2
1.439218692E0,-4.398229718E-2,-1.863138936E-2,2.947424725E-2
1.441459842E0,-4.657847434E-2,-2.351831272E-2,2.947424725E-2
1.443697208E0,-4.780020565E-2,-2.351831272E-2,2.580905706E-2
1.445933598E0,-4.902193695E-2,-2.351831272E-2,2.458732575E-2
1.448169010E0,-4.902193695E-2,-2.580905706E-2,2.076941915E-2
1.450405094E0,-5.268712714E-2,-2.458732575E-2,2.076941915E-2
1.452641971E0,-5.390885845E-2,-2.580905706E-2,1.954768784E-2
1.454878482E0,-5.024366826E-2,-2.703078650E-2,1.466076635E-2
1.457114872E0,-5.146539584E-2,-2.825251780E-2,1.343903504E-2
1.459351688E0,-5.024366826E-2,-2.580905706E-2,1.221730467E-2
1.461588993E0,-5.024366826E-2,-2.458732575E-2,8.552113548E-3
1.463824588E0,-5.146539584E-2,-2.458732575E-2,4.886921961E-3
1.466060856E0,-4.764748737E-2,-2.351831272E-2,2.443460980E-3
1.468297001E0,-4.382958263E-2,-1.863138936E-2,1.374446787E-3
1.470534061E0,-4.382958263E-2,-1.511891466E-2,-3.512475174E-3
1.472770633E0,-4.001167417E-2,-1.145372353E-2,-1.069014193E-3
1.475007022E0,-3.863722831E-2,-7.941247895E-3,-4.734205548E-3
1.477243778E0,-3.497203439E-2,-5.497787148E-3,-7.177666761E-3
1.479481388E0,-3.237585723E-2,-7.635815418E-4,-7.024950348E-3
1.481717899E0,-2.977968007E-2,5.345070735E-3,-7.024950348E-3
1.483954226E0,-2.718350291E-2,1.007927675E-2,-8.246680722E-3
1.486194156E0,-2.840523422E-2,1.374446787E-2,-8.246680722E-3
1.488425541E0,-2.596177347E-2,1.496619824E-2,-5.650503561E-3
1.490662418E0,-1.970040426E-2,1.481348183E-2,-6.872233935E-3
1.492897525E0,-1.970040426E-2,1.970040426E-2,-4.428773187E-3
1.495135745E0,-1.847867295E-2,1.847867295E-2,-3.207042580E-3
1.497373417E0,-1.725694351E-2,1.847867295E-2,-7.635815418E-4
1.499608585E0,-1.740965992E-2,1.481348183E-2,1.679879380E-3
1.501842166E0,-1.496619824E-2,1.343903504E-2,5.345070735E-3
1.504069340E0,-1.740965992E-2,1.237002108E-2,5.345070735E-3
1.506315067E0,-1.878410578E-2,7.483099122E-3,7.788531948E-3
1.508542972E0,-1.878410578E-2,3.817907767E-3,6.566801574E-3
1.510794558E0,-1.771509275E-2,-4.581489135E-3,1.023199316E-2
1.513024783E0,-2.046398632E-2,-1.557706390E-2,1.007927675E-2
1.515256229E0,-2.306016348E-2,-1.908953860E-2,1.130100712E-2
1.517500431E0,-2.306016348E-2,-2.397646010E-2,1.374446787E-2
1.519736942E0,-2.458732575E-2,-3.481931984E-2,1.114829071E-2
1.521976138E0,-2.351831272E-2,-4.092797264E-2,1.114829071E-2
1.524206790E0,-2.351831272E-2,-4.581489414E-2,1.359175146E-2
1.526434513E0,-2.871066704E-2,-5.299255997E-2,1.725694351E-2
1.528683231E0,-2.871066704E-2,-5.910121277E-2,1.359175146E-2
1.530916934E0,-2.886338346E-2,-6.261368841E-2,1.481348183E-2
1.533148380E0,-3.130684420E-2,-6.383541971E-2,1.710422710E-2
1.535392399E0,-2.779436857E-2,-6.750060618E-2,1.725694351E-2
1.537629032E0,-3.390302137E-2,-6.627888232E-2,1.710422710E-2
1.539868289E0,-3.252857551E-2,-6.505715102E-2,1.466076635E-2
1.542102176E0,-3.512475267E-2,-6.734789163E-2,1.221730467E-2
1.544338565E0,-3.619376570E-2,-6.490442902E-2,1.099557430E-2
1.546575321E0,-3.375030309E-2,-6.750060618E-2,8.552113548E-3
1.548811893E0,-3.619376570E-2,-6.734789163E-2,6.108652335E-3
1.551049442E0,-3.878994286E-2,-6.856962293E-2,1.221730490E-3
1.553285465E0,-3.878994286E-2,-7.101308554E-2,-3.665191587E-3
1.555521122E0,-4.123340547E-2,-7.452555746E-2,-5.039638374E-3
1.557757389E0,-4.505131021E-2,-7.819075137E-2,-9.926560335E-3
1.559993778E0,-4.489859566E-2,-7.574728876E-2,-1.359175146E-2
1.562230533E0,-4.734205827E-2,-7.803803682E-2,-1.603521220E-2
1.564466922E0,-4.749477282E-2,-8.170322329E-2,-2.092213556E-2
1.566704044E0,-4.734205827E-2,-8.048149943E-2,-2.458732575E-2
1.568942326E0,-4.856378585E-2,-7.681630552E-2,-2.825251780E-2
1.571180790E0,-5.345070735E-2,-7.559457421E-2,-3.084869497E-2
1.573412906E0,-5.329799280E-2,-7.315111160E-2,-3.084869497E-2
1.575649296E0,-5.696318299E-2,-6.704246253E-2,-3.329215571E-2
1.577885318E0,-6.047565863E-2,-6.322455406E-2,-3.695734590E-2
1.580122684E0,-6.658431143E-2,-5.711590126E-2,-3.817907721E-2
1.582359012E0,-7.009678334E-2,-5.222897977E-2,-3.817907721E-2
1.584595829E0,-7.376197726E-2,-4.963280261E-2,-3.940080851E-2
1.586833377E0,-7.605272532E-2,-4.352414981E-2,-3.817907721E-2
1.589068790E0,-7.849618047E-2,-3.985895589E-2,-3.207042441E-2
1.591305301E0,-8.093964309E-2,-3.741549700E-2,-3.207042441E-2
1.593541324E0,-8.200865984E-2,-2.886338346E-2,-2.351831272E-2
1.595778202E0,-8.933904022E-2,-2.138028294E-2,-1.863138936E-2
1.598011783E0,-9.300423414E-2,-1.649336144E-2,-1.374446787E-2
1.600236514E0,-9.529497474E-2,-6.719517522E-3,-2.748893574E-3
1.602476444E0,-9.651670605E-2,-3.054326167E-3,7.024950348E-3
1.604725162E0,-9.773843735E-2,3.054326167E-3,1.557706390E-2
1.606963566E0,-1.014036313E-1,5.497787148E-3,2.535090782E-2
1.609200259E0,-1.064432710E-1,6.719517522E-3,3.634648025E-2
1.611433536E0,-1.088867337E-1,6.872233935E-3,5.100724846E-2
1.613670536E0,-1.139263660E-1,6.872233935E-3,5.955936015E-2
1.615906620E0,-1.163698286E-1,9.468411095E-3,6.688974798E-2
1.618143375E0,-1.191187203E-1,9.162978968E-4,7.422012836E-2
1.620379703E0,-1.278235465E-1,1.069014193E-3,8.506298810E-2
1.622617618E0,-1.314887404E-1,-1.221730490E-3,9.117163718E-2
1.624853824E0,-1.391245574E-1,-1.084285788E-2,9.605856240E-2
1.627089298E0,-1.429424733E-1,-1.069014147E-2,1.007927656E-1
1.629325504E0,-1.504255682E-1,-1.542434748E-2,1.020144969E-1
1.631561832E0,-1.589776874E-1,-1.649336144E-2,1.043052375E-1
1.633798649E0,-1.664607823E-1,-2.000583708E-2,1.079704314E-1
1.636034977E0,-1.727221459E-1,-2.229658142E-2,1.067487001E-1
1.638271854E0,-1.814269722E-1,-2.580905706E-2,1.065959856E-1
1.640509159E0,-1.899790913E-1,-2.672535367E-2,1.076650023E-1
1.642744815E0,-1.939497143E-1,-3.756821156E-2,1.064432710E-1
1.644981388E0,-2.014328092E-1,-4.474587739E-2,1.062905490E-1
1.647217594E0,-2.076941878E-1,-4.825835302E-2,1.026253626E-1
1.649453983E0,-2.076941878E-1,-5.070181563E-2,1.014036313E-1
1.651690799E0,-2.125810981E-1,-4.810563847E-2,9.773843735E-2
1.653927311E0,-2.162462920E-1,-5.177082866E-2,9.514226019E-2
1.656164066E0,-2.174680233E-1,-4.932736978E-2,9.269879758E-2
1.658401493E0,-2.174680233E-1,-4.688390717E-2,9.025534242E-2
1.660636844E0,-2.211332172E-1,-4.795292020E-2,9.025534242E-2
1.662870426E0,-2.222022265E-1,-4.306599870E-2,9.269879758E-2
1.665094974E0,-2.185370475E-1,-3.955352306E-2,9.392052889E-2
1.667336246E0,-2.183843255E-1,-3.466660157E-2,9.651670605E-2
1.669582584E0,-2.170098722E-1,-2.626720630E-2,9.896016866E-2
1.671822208E0,-2.145664245E-1,-2.382374369E-2,1.014036313E-1
1.674058536E0,-2.144137025E-1,-1.908953860E-2,1.038470939E-1
1.676293399E0,-2.131919712E-1,-1.298088674E-2,1.064432710E-1
1.678528934E0,-2.118175179E-1,-9.315694682E-3,1.101084575E-1
1.680765262E0,-2.105957866E-1,-7.024950348E-3,1.125519201E-1
1.683001530E0,-2.116648108E-1,-9.162978968E-4,1.162171140E-1
1.685238102E0,-2.092213482E-1,3.970623948E-3,1.186605766E-1
1.687474735E0,-2.104430795E-1,7.635815535E-3,1.223257631E-1
1.689711307E0,-2.102903575E-1,1.130100712E-2,1.249219403E-1
1.691948184E0,-2.115120888E-1,1.374446787E-2,1.285871267E-1
1.694181216E0,-2.127338201E-1,1.496619824E-2,1.334740520E-1
1.696403934E0,-2.127338201E-1,1.863138936E-2,1.346957833E-1
1.698657352E0,-2.139555514E-1,1.863138936E-2,1.383609772E-1
1.700890689E0,-2.163990140E-1,1.985312067E-2,1.444696337E-1
1.703122745E0,-2.212859392E-1,2.122756653E-2,1.455386430E-1
1.705366825E0,-2.226603776E-1,2.000583708E-2,1.504255682E-1
1.707603397E0,-2.301434875E-1,1.649336144E-2,1.540907621E-1
1.709843204E0,-2.362521291E-1,2.138028294E-2,1.565342247E-1
1.712077518E0,-2.449569702E-1,1.557706390E-2,1.600466967E-1
1.714312870E0,-2.536617815E-1,1.084285788E-2,1.647808999E-1
1.716549442E0,-2.648100853E-1,1.237002108E-2,1.672243625E-1
1.718785709E0,-2.747366428E-1,1.130100712E-2,1.731802970E-1
1.721022342E0,-2.895501256E-1,7.941247895E-3,1.756237596E-1
1.723258915E0,-3.031418920E-1,3.359758761E-3,1.815796942E-1
1.725495487E0,-3.142901659E-1,1.069014193E-3,1.838704348E-1
1.727732303E0,-3.306308091E-1,-9.468411095E-3,1.898263693E-1
1.729968753E0,-3.497203588E-1,-3.573561832E-2,2.029599845E-1
1.732202457E0,-3.700316250E-1,-6.337726861E-2,2.211332172E-1
1.734441227E0,-3.865249753E-1,-8.491026610E-2,2.306016237E-1
1.736677616E0,-4.004221559E-1,-9.666942805E-2,2.353358418E-1
1.738915042E0,-4.192062616E-1,-1.133155003E-1,2.327396572E-1
1.741151004E0,-4.343251884E-1,-1.311833113E-1,2.287690341E-1
1.743387394E0,-4.480696619E-1,-1.443169117E-1,2.212859392E-1
1.745626590E0,-4.618141353E-1,-1.598939747E-1,2.089159191E-1
1.747870243E0,-4.718934000E-1,-1.742493063E-1,1.977676302E-1
1.750097049E0,-4.795292318E-1,-1.886046380E-1,1.853975952E-1
1.752333316E0,-4.857905805E-1,-2.018909603E-1,1.730275750E-1
1.754567508E0,-4.885394871E-1,-2.151772827E-1,1.655444801E-1
1.756806522E0,-4.935791194E-1,-2.270891517E-1,1.582140923E-1
1.759043094E0,-4.963280261E-1,-2.393064648E-1,1.507309973E-1
1.761279422E0,-4.951062799E-1,-2.477058619E-1,1.421788931E-1
1.763516239E0,-4.940372705E-1,-2.538145185E-1,1.385136992E-1
1.765753848E0,-4.955644310E-1,-2.658790946E-1,1.359175146E-1
1.767990299E0,-4.955644310E-1,-2.683225572E-1,1.346957833E-1
1.770225223E0,-4.955644310E-1,-2.695443034E-1,1.346957833E-1
1.772461796E0,-4.954117239E-1,-2.658790946E-1,1.346957833E-1
1.774698307E0,-4.952589869E-1,-2.574796975E-1,1.311833113E-1
1.776935245E0,-4.975497425E-1,-2.501493096E-1,1.299615800E-1
1.779169681E0,-4.998404980E-1,-2.391537428E-1,1.262963861E-1
1.781401004E0,-5.019785166E-1,-2.232712507E-1,1.226311997E-1
1.783645633E0,-5.041165352E-1,-2.087631971E-1,1.165225431E-1
1.785878971E0,-5.050328374E-1,-1.965458989E-1,1.067487001E-1
1.788110355E0,-5.059491396E-1,-1.857030392E-1,9.468411654E-2
1.790353824E0,-5.079344511E-1,-1.722639948E-1,8.368854225E-2
1.792590397E0,-5.090034604E-1,-1.649336219E-1,7.513642311E-2
1.794829288E0,-5.125159621E-1,-1.588249654E-1,6.291911751E-2
1.797060611E0,-5.099197626E-1,-1.528690308E-1,5.192354694E-2
1.799288455E0,-5.109887719E-1,-1.492038369E-1,4.337143153E-2
1.801537479E0,-5.120577812E-1,-1.455386430E-1,3.359758854E-2
1.803773075E0,-5.082398653E-1,-1.430951804E-1,2.626720630E-2
1.806012638E0,-5.093088746E-1,-1.382082552E-1,2.504547499E-2
1.808246036E0,-5.091561675E-1,-1.298088580E-1,2.504547499E-2
1.810482792E0,-5.065600276E-1,-1.237002090E-1,2.504547499E-2
1.812719120E0,-5.064072609E-1,-1.116356254E-1,3.008511290E-2
1.814955692E0,-5.061018467E-1,-9.697485715E-2,3.741549700E-2
1.817192447E0,-5.057964325E-1,-7.635815442E-2,4.489859566E-2
1.819429569E0,-5.028948188E-1,-5.467243865E-2,5.726861581E-2
1.821665104E0,-5.013676286E-1,-3.405573592E-2,6.597344577E-2
1.823901432E0,-4.996877611E-1,-7.330383174E-3,7.452555746E-2
1.826134647E0,-4.954117239E-1,2.046398632E-2,8.445212245E-2
1.828361942E0,-4.925101101E-1,5.070181563E-2,9.575312585E-2
1.830611271E0,-4.920519590E-1,7.376197726E-2,1.067487001E-1
1.832847843E0,-4.856378734E-1,9.544769675E-2,1.191187203E-1
1.835087772E0,-4.778493345E-1,1.159116775E-1,1.302670091E-1
1.837321842E0,-4.702135324E-1,1.353066564E-1,1.401935667E-1
1.839558048E0,-4.625777006E-1,1.459967941E-1,1.501201391E-1
1.841791080E0,-4.526511431E-1,1.542434692E-1,1.600466967E-1
1.844018192E0,-4.451680481E-1,1.589776874E-1,1.675297916E-1
1.846266483E0,-4.392121136E-1,1.565342247E-1,1.773036420E-1
1.848502933E0,-4.331034720E-1,1.551597714E-1,1.835650057E-1
1.850742557E0,-4.269948006E-1,1.562287807E-1,1.860084683E-1
1.852976444E0,-4.208861589E-1,1.524108797E-1,1.921171248E-1
1.855213810E0,-4.173736870E-1,1.438587606E-1,1.970040351E-1
1.857449405E0,-4.138612151E-1,1.377501190E-1,1.957823038E-1
1.859685917E0,-4.126394689E-1,1.353066564E-1,1.957823038E-1
1.861922001E0,-4.065308273E-1,1.351539344E-1,1.947132945E-1
1.864157108E0,-4.053090811E-1,1.339322031E-1,1.910481006E-1
1.866388492E0,-4.063780904E-1,1.351539344E-1,1.873829067E-1
1.868631717E0,-4.040873647E-1,1.327104717E-1,1.849394590E-1
1.870868534E0,-4.027129114E-1,1.339322031E-1,1.788308024E-1
1.873107486E0,-3.988949955E-1,1.350012124E-1,1.715004146E-1
1.875341251E0,-4.002694488E-1,1.327104717E-1,1.666134894E-1
1.877578006E0,-4.013384581E-1,1.351539344E-1,1.653917581E-1
1.879814030E0,-4.001167417E-1,1.339322031E-1,1.629483104E-1
1.882050663E0,-3.988949955E-1,1.362229437E-1,1.629483104E-1
1.884287113E0,-3.976732790E-1,1.362229437E-1,1.629483104E-1
1.886523563E0,-3.975205719E-1,1.386664063E-1,1.617265791E-1
1.888760684E0,-3.987422884E-1,1.386664063E-1,1.617265791E-1
1.890997928E0,-3.975205719E-1,1.386664063E-1,1.580613852E-1
1.893233341E0,-3.950771093E-1,1.362229437E-1,1.568396538E-1
1.895469852E0,-3.950771093E-1,1.386664063E-1,1.531744599E-1
1.897706180E0,-3.924809098E-1,1.397354305E-1,1.470658034E-1
1.899942997E0,-3.949243724E-1,1.386664063E-1,1.434006095E-1
1.902177250E0,-3.962988257E-1,1.325577646E-1,1.409571618E-1
1.904407535E0,-3.926336467E-1,1.288925707E-1,1.336267740E-1
1.906652469E0,-3.877467215E-1,1.227839142E-1,1.275181174E-1
1.908890262E0,-3.891211748E-1,1.191187203E-1,1.224784851E-1
1.911128421E0,-3.854559660E-1,1.177442744E-1,1.189660057E-1
1.913361942E0,-3.842342496E-1,1.165225431E-1,1.140790880E-1
1.915598026E0,-3.804163337E-1,1.201877370E-1,1.104138941E-1
1.917834842E0,-3.753767014E-1,1.237002090E-1,1.043052375E-1
1.920071415E0,-3.740022480E-1,1.285871267E-1,1.006400511E-1
1.922307987E0,-3.689626157E-1,1.320996135E-1,9.957103431E-2
1.924544559E0,-3.651446998E-1,1.392772794E-1,9.590584040E-2
1.926782108E0,-3.576616049E-1,1.427897513E-1,9.728029370E-2
1.929017399E0,-3.477350473E-1,1.449277848E-1,9.239336848E-2
1.931253361E0,-3.378084898E-1,1.508837193E-1,9.132435173E-2
1.933488407E0,-3.252857327E-1,1.603521258E-1,9.025534242E-2
1.935727237E0,-3.139847219E-1,1.649336219E-1,8.781187981E-2
1.937963810E0,-3.026837409E-1,1.756237596E-1,8.674286306E-2
1.940200504E0,-2.854267955E-1,1.826487035E-1,8.949175477E-2
1.942436588E0,-2.703078687E-1,1.944078654E-1,8.842274547E-2
1.944673893E0,-2.506074607E-1,1.989893466E-1,8.735372871E-2
1.946909488E0,-2.344195396E-1,2.083050460E-1,8.506298810E-2
1.949146975E0,-2.157881409E-1,2.151772827E-1,8.277224004E-2
1.951386539E0,-1.996002197E-1,2.209804952E-1,7.803803682E-2
1.953618717E0,-1.783726513E-1,2.302961946E-1,7.223481685E-2
1.955855411E0,-1.586722434E-1,2.347249687E-1,6.872233748E-2
1.958091068E0,-1.339322031E-1,2.391537428E-1,6.276640296E-2
1.960328861E0,-1.177442744E-1,2.425135076E-1,5.314527452E-2
1.962566288E0,-9.422596544E-2,2.443460971E-1,4.841107130E-2
1.964801395E0,-7.192938030E-2,2.475531399E-1,4.260785133E-2
1.967035342E0,-5.207626149E-2,2.533563673E-1,3.665191308E-2
1.969262699E0,-3.222314268E-2,2.590068579E-1,3.191770986E-2
1.971510868E0,-1.130100712E-2,2.609921694E-1,2.840523422E-2
1.973747379E0,1.099557430E-2,2.641992271E-1,2.382374369E-2
1.975986881E0,2.947424725E-2,2.651155293E-1,2.275473066E-2
1.978220890E0,4.428773001E-2,2.707660198E-1,2.535090782E-2
1.980458377E0,6.047565863E-2,2.753475010E-1,2.794708498E-2
1.982694461E0,7.635815442E-2,2.738203406E-1,3.176499158E-2
1.984930057E0,9.361509979E-2,2.784018219E-1,3.680463135E-2
1.987166385E0,1.033889428E-1,2.758056521E-1,4.413501546E-2
1.989402958E0,1.156062484E-1,2.742784917E-1,5.039638281E-2
1.991639530E0,1.241583601E-1,2.704605758E-1,5.650503561E-2
1.993876102E0,1.362229437E-1,2.629774809E-1,6.398813426E-2
1.996108401E0,1.434006095E-1,2.567161322E-1,7.376197726E-2
1.998332096E0,1.519527286E-1,2.541199327E-1,8.002334833E-2
2.000585331E0,1.553124934E-1,2.431243658E-1,8.613199741E-2
2.002822086E0,1.600466967E-1,2.309070677E-1,9.224065393E-2
2.005060245E0,1.623374373E-1,2.272418737E-1,9.834930301E-2
2.007282474E0,1.646281779E-1,2.186897546E-1,1.032362282E-1
2.009517215E0,1.655444801E-1,2.089159191E-1,1.081231460E-1
2.011756595E0,1.629483104E-1,2.017382532E-1,1.091921628E-1
2.014007754E0,1.640173197E-1,1.944078654E-1,1.116356254E-1
2.016245182E0,1.650863290E-1,1.870774776E-1,1.140790880E-1
2.018480595E0,1.649336219E-1,1.811215430E-1,1.153008118E-1
2.020714115E0,1.598939747E-1,1.751656085E-1,1.139263660E-1
2.022950321E0,1.600466967E-1,1.751656085E-1,1.114829108E-1
2.025187381E0,1.574505121E-1,1.702786833E-1,1.065959856E-1
2.027423710E0,1.548543423E-1,1.643227488E-1,1.065959856E-1
2.029660282E0,1.524108797E-1,1.618792862E-1,1.029307917E-1
2.031896915E0,1.536326110E-1,1.606575549E-1,1.004873365E-1
2.034134769E0,1.499674171E-1,1.608102769E-1,9.300423414E-2
2.036370243E0,1.499674171E-1,1.571450830E-1,8.689557761E-2
2.038606327E0,1.487456858E-1,1.571450830E-1,8.200865984E-2
2.040842350E0,1.473712474E-1,1.510364264E-1,7.956519723E-2
2.043079288E0,1.449277848E-1,1.463022232E-1,7.330382615E-2
2.045315494E0,1.447750628E-1,1.365283877E-1,7.086037099E-2
2.047552188E0,1.420261711E-1,1.269072592E-1,6.841690838E-2
2.049789127E0,1.406517178E-1,1.185078546E-1,6.093380973E-2
2.052026554E0,1.356120855E-1,1.052215397E-1,5.726861581E-2
2.054262882E0,1.328631938E-1,9.315694869E-2,5.222897977E-2
2.056498356E0,1.290452778E-1,8.597928286E-2,4.734205827E-2
2.058734501E0,1.240056455E-1,7.513642311E-2,4.352414981E-2
2.060971073E0,1.237002090E-1,6.291911751E-2,4.352414981E-2
2.063207828E0,1.223257631E-1,5.329799280E-2,4.092797264E-2
2.065444217E0,1.232420653E-1,3.985895589E-2,4.092797264E-2
2.067681034E0,1.232420653E-1,3.756821156E-2,4.459316283E-2
2.069918338E0,1.267545372E-1,3.619376570E-2,4.703662544E-2
2.072153995E0,1.354593635E-1,3.726277873E-2,5.085453019E-2
2.074390506E0,1.403462887E-1,3.833179548E-2,5.329799280E-2
2.076626591E0,1.490511149E-1,4.184427112E-2,5.711590126E-2
2.078863407E0,1.589776874E-1,4.535674304E-2,6.322455406E-2
2.081099979E0,1.736384481E-1,4.627304152E-2,6.337726861E-2
2.083336551E0,1.846340150E-1,4.230241850E-2,6.475171447E-2
2.085573184E0,1.982257664E-1,4.566217586E-2,6.734789163E-2
2.087810672E0,2.104430795E-1,3.695734590E-2,6.612616032E-2
2.090045963E0,2.226603776E-1,3.191770986E-2,6.505715102E-2
2.092282352E0,2.312124968E-1,2.809980139E-2,6.261368841E-2
2.094518619E0,2.470949888E-1,2.046398632E-2,5.787948146E-2
2.096755436E0,2.554943860E-1,1.069014147E-2,5.421429127E-2
2.098988895E0,2.664899528E-1,1.985311974E-3,4.566217586E-2
2.101216739E0,2.762638032E-1,-5.497787148E-3,3.955352306E-2
2.103465457E0,2.835941911E-1,-8.093964309E-3,3.359758854E-2
2.105699527E0,2.910772860E-1,-9.468411095E-3,2.504547499E-2
2.107928837E0,3.034473062E-1,-8.552113548E-3,1.542434748E-2
2.110174381E0,3.133738637E-1,-8.704829961E-3,4.428773187E-3
2.112410770E0,3.233004212E-1,-6.414085161E-3,-7.635815535E-3
2.114650638E0,3.283400834E-1,-6.566801574E-3,-1.740965992E-2
2.116884159E0,3.370448947E-1,-5.497787148E-3,-3.207042441E-2
2.119120426E0,3.410155177E-1,4.581489484E-4,-4.673119262E-2
2.121357059E0,3.472768962E-1,5.192354787E-3,-5.879577994E-2
2.123594791E0,3.500257730E-1,1.130100712E-2,-7.345654815E-2
2.125830936E0,3.538436890E-1,1.847867295E-2,-8.567385375E-2
2.128063602E0,3.552181423E-1,2.092213556E-2,-1.003346145E-1
2.130290836E0,3.565925956E-1,1.954768784E-2,-1.149953827E-1
2.132539188E0,3.541491330E-1,1.603521220E-2,-1.320996135E-1
2.134776004E0,3.515529633E-1,5.192354787E-3,-1.493565589E-1
2.137015568E0,3.477350473E-1,-6.872233935E-3,-1.666134894E-1
2.139249454E0,3.425426781E-1,-2.871066704E-2,-1.826487035E-1
2.141486759E0,3.384193480E-1,-5.650503561E-2,-1.999056488E-1
2.143722293E0,3.254384696E-1,-9.147707373E-2,-2.185370475E-1
2.145958561E0,3.150537610E-1,-1.301143020E-1,-2.347249687E-1
2.148194645E0,3.045163155E-1,-1.650863290E-1,-2.495384514E-1
2.150431461E0,2.915354371E-1,-2.047925740E-1,-2.669481039E-1
2.152668094E0,2.796235681E-1,-2.519819140E-1,-2.806925774E-1
2.154904728E0,2.690861523E-1,-2.904664278E-1,-2.932153046E-1
2.157141544E0,2.559525371E-1,-3.303253949E-1,-3.069597781E-1
2.159378788E0,2.443460971E-1,-3.640756905E-1,-3.168863356E-1
2.161612308E0,2.301434875E-1,-3.953825235E-1,-3.269656301E-1
2.163843387E0,2.162462920E-1,-4.169155359E-1,-3.321579695E-1
2.166086979E0,2.049452960E-1,-4.312708676E-1,-3.371976018E-1
2.168323612E0,1.937969923E-1,-4.358523488E-1,-3.408628106E-1
2.170562015E0,1.864666194E-1,-4.321871698E-1,-3.410155177E-1
2.172796756E0,1.829541475E-1,-4.259257913E-1,-3.397938013E-1
2.175033634E0,1.708895564E-1,-4.123340547E-1,-3.373503387E-1
2.177270877E0,1.687515229E-1,-3.917173445E-1,-3.361285925E-1
2.179506168E0,1.690569520E-1,-3.735440969E-1,-3.310889602E-1
2.181742496E0,1.721112877E-1,-3.457497358E-1,-3.260493279E-1
2.183978885E0,1.776090711E-1,-3.202461004E-1,-3.222314119E-1
2.186213016E0,1.866193265E-1,-2.962696552E-1,-3.184134960E-1
2.188440616E0,1.956295967E-1,-2.733621895E-1,-3.121521473E-1
2.190688846E0,2.095267773E-1,-2.553416789E-1,-3.069597781E-1
2.192925357E0,2.246456891E-1,-2.338086665E-1,-3.019201458E-1
2.195165958E0,2.397646159E-1,-2.183843255E-1,-2.956587672E-1
2.197399540E0,2.573269904E-1,-1.980730593E-1,-2.916881442E-1
2.199630802E0,2.773328125E-1,-1.814269722E-1,-2.901609838E-1
2.201854618E0,2.936734557E-1,-1.647808999E-1,-2.851213515E-1
2.204106022E0,3.098613918E-1,-1.530217379E-1,-2.825251818E-1
2.206338504E0,3.323107064E-1,-1.400408596E-1,-2.809980214E-1
2.208585025E0,3.546072841E-1,-1.343903542E-1,-2.784018219E-1
2.210817508E0,3.718642294E-1,-1.287398487E-1,-2.745839357E-1
2.213056217E0,3.929390609E-1,-1.218676195E-1,-2.742784917E-1
2.215290165E0,4.152356386E-1,-1.211040318E-1,-2.741257846E-1
2.217526981E0,4.349360466E-1,-1.130100712E-1,-2.715296149E-1
2.219763126E0,4.546364546E-1,-1.157589629E-1,-2.725986242E-1
2.222000126E0,4.755585790E-1,-1.125519201E-1,-2.698497176E-1
2.224233219E0,4.915938079E-1,-1.104138941E-1,-2.672535479E-1
2.226461124E0,5.076290369E-1,-1.143845171E-1,-2.635883391E-1
2.228706729E0,5.259549618E-1,-1.134682223E-1,-2.583959997E-1
2.230934696E0,5.395467281E-1,-1.101084575E-1,-2.547308207E-1
2.233185245E0,5.519167781E-1,-1.104138941E-1,-2.533563673E-1
2.235419010E0,5.581781268E-1,-1.044579595E-1,-2.470949888E-1
2.237658206E0,5.656611919E-1,-9.239336848E-2,-2.409863323E-1
2.239891971E0,5.670356750E-1,-8.765916526E-2,-2.383901626E-1
2.242128238E0,5.722280145E-1,-7.192938030E-2,-2.335032374E-1
2.244364933E0,5.725334287E-1,-5.131268129E-2,-2.260201424E-1
2.246601932E0,5.705481172E-1,-3.069597855E-2,-2.185370475E-1
2.248838993E0,5.671883821E-1,-9.926560335E-3,-2.124283910E-1
2.251074344E0,5.590944290E-1,1.924225502E-2,-2.050980031E-1
2.253310856E0,5.546656251E-1,4.734205827E-2,-1.951714456E-1
2.255547245E0,5.442809463E-1,8.032877743E-2,-1.915062517E-1
2.257784061E0,5.337435007E-1,1.096503139E-1,-1.840231568E-1
2.260020450E0,5.244278312E-1,1.412625909E-1,-1.766927689E-1
2.262257206E0,5.128213763E-1,1.754710376E-1,-1.718058437E-1
2.264493778E0,4.975497425E-1,2.110539377E-1,-1.705841124E-1
2.266728458E0,4.833471179E-1,2.391537428E-1,-1.656972021E-1
2.268955814E0,4.628831446E-1,2.663372457E-1,-1.656972021E-1
2.271202762E0,4.485278130E-1,2.897028327E-1,-1.644754708E-1
2.273439335E0,4.317290187E-1,3.106249869E-1,-1.658499092E-1
2.275678836E0,4.112650156E-1,3.292563558E-1,-1.682933718E-1
2.277912662E0,3.918700516E-1,3.405573666E-1,-1.696678251E-1
2.280148563E0,3.711006343E-1,3.481931984E-1,-1.759291887E-1
2.282385868E0,3.552181423E-1,3.533855379E-1,-1.773036420E-1
2.284623111E0,3.381139040E-1,3.573561609E-1,-1.786780804E-1
2.286858646E0,3.208569586E-1,3.552181423E-1,-1.849394590E-1
2.289095096E0,3.046690524E-1,3.459024429E-1,-1.887573600E-1
2.291331424E0,2.897028327E-1,3.339905739E-1,-1.901318133E-1
2.293568241E0,2.758056521E-1,3.210096955E-1,-1.927279830E-1
2.295804508E0,2.631302178E-1,3.029891551E-1,-1.966986060E-1
2.298040836E0,2.553416789E-1,2.825251818E-1,-1.980730593E-1
2.300277713E0,2.477058619E-1,2.645046413E-1,-1.980730593E-1
2.302515262E0,2.446515262E-1,2.365575731E-1,-1.957823038E-1
2.304750675E0,2.428189367E-1,2.075414658E-1,-1.947132945E-1
2.306987308E0,2.397646159E-1,1.785253733E-1,-1.924225539E-1
2.309223697E0,2.415972054E-1,1.493565589E-1,-1.901318133E-1
2.311460086E0,2.422080636E-1,1.189660057E-1,-1.866193265E-1
2.313696659E0,2.438879460E-1,8.491026610E-2,-1.817324162E-1
2.315933170E0,2.506074607E-1,5.803219974E-2,-1.745547503E-1
2.318170108E0,2.550362349E-1,2.886338346E-2,-1.684460938E-1
2.320407474E0,2.556470931E-1,4.581489135E-3,-1.586722434E-1
2.322643131E0,2.564106882E-1,-1.725694351E-2,-1.551597714E-1
2.324879032E0,2.620611787E-1,-3.924809024E-2,-1.478293836E-1
2.327115604E0,2.591595948E-1,-5.986479297E-2,-1.418734491E-1
2.329352298E0,2.550362349E-1,-7.544185966E-2,-1.333213449E-1
2.331588810E0,2.498438805E-1,-8.628471941E-2,-1.249219403E-1
2.333825260E0,2.397646159E-1,-9.819658846E-2,-1.140790880E-1
2.336061893E0,2.284636050E-1,-1.053742543E-1,-1.030835137E-1
2.338299747E0,2.084577680E-1,-1.110247597E-1,-8.979719132E-2
2.340536014E0,1.849394590E-1,-1.142318025E-1,-7.666359097E-2
2.342771427E0,1.627955884E-1,-1.125519201E-1,-6.582073122E-2
2.345007694E0,1.293507218E-1,-1.119410545E-1,-5.009094998E-2
2.347244205E0,9.621127695E-2,-1.052215397E-1,-3.695734590E-2
2.349478213E0,5.436700583E-2,-9.712757170E-2,-2.504547499E-2
2.351706852E0,1.267545391E-2,-8.781187981E-2,-1.313360315E-2
2.353953922E0,-3.283400834E-2,-8.078692853E-2,-6.108652335E-3
2.356191349E0,-7.574728876E-2,-7.391469181E-2,8.246680722E-3
2.358429751E0,-1.224784851E-1,-6.322455406E-2,1.634064503E-2
2.360663517E0,-1.679879427E-1,-5.757404864E-2,2.214386500E-2
2.362899784E0,-2.183843255E-1,-5.528330430E-2,2.779436857E-2
2.365136295E0,-2.640464902E-1,-5.451972410E-2,3.481931984E-2
2.367372928E0,-3.034473062E-1,-5.604688451E-2,4.184427112E-2
2.369609501E0,-3.454442918E-1,-6.383541971E-2,4.627304152E-2
2.371846378E0,-3.851505518E-1,-7.513642311E-2,4.841107130E-2
2.374083683E0,-4.187481403E-1,-8.903361112E-2,5.177082866E-2
2.376319278E0,-4.509712756E-1,-1.029307917E-1,5.375614017E-2
2.378554630E0,-4.760167301E-1,-1.218676195E-1,5.726861581E-2
2.380787174E0,-5.010622144E-1,-1.420261711E-1,5.696318299E-2
2.383028385E0,-5.210680366E-1,-1.586722434E-1,5.543602258E-2
2.385264957E0,-5.387831330E-1,-1.802052408E-1,5.650503561E-2
2.387502750E0,-5.551238060E-1,-2.005165219E-1,5.497787148E-2
2.389738468E0,-5.665774941E-1,-2.147191316E-1,5.238169432E-2
2.391975772E0,-5.754350424E-1,-2.339613885E-1,4.734205827E-2
2.394208316E0,-5.781839490E-1,-2.474004179E-1,4.108068720E-2
2.396435611E0,-5.797111392E-1,-2.643519342E-1,3.375030309E-2
2.398683658E0,-5.798638463E-1,-2.703078687E-1,3.008511290E-2
2.400920475E0,-5.737552047E-1,-2.777909636E-1,2.031126991E-2
2.403160099E0,-5.699372888E-1,-2.765692472E-1,1.175915636E-2
2.405393741E0,-5.600107312E-1,-2.779437006E-1,3.207042580E-3
2.407630557E0,-5.513058901E-1,-2.770273983E-1,-6.414085161E-3
2.409868106E0,-5.426010489E-1,-2.710714638E-1,-1.496619824E-2
2.412104374E0,-5.274821520E-1,-2.616030276E-1,-2.458732575E-2
2.414339725E0,-5.151121020E-1,-2.570215464E-1,-3.054326214E-2
2.416575992E0,-4.975497425E-1,-2.440406680E-1,-3.894266114E-2
2.418812321E0,-4.838052690E-1,-2.357939780E-1,-4.612032697E-2
2.421049198E0,-4.662429094E-1,-2.215913683E-1,-5.207626149E-2
2.423285770E0,-4.474588037E-1,-2.098322064E-1,-5.665775016E-2
2.425522647E0,-4.274529517E-1,-1.980730593E-1,-6.261368841E-2
2.427759830E0,-4.075998366E-1,-1.850921661E-1,-6.352998316E-2
2.429994999E0,-3.849978149E-1,-1.685988009E-1,-6.459899992E-2
2.432231754E0,-3.601050675E-1,-1.496619880E-1,-6.307183951E-2
2.434467899E0,-3.399465084E-1,-1.281289905E-1,-5.910121277E-2
2.436705021E0,-3.149010241E-1,-1.104138941E-1,-5.757404864E-2
2.438941288E0,-2.860376537E-1,-8.063421398E-2,-5.482515693E-2
2.441177921E0,-2.609921694E-1,-5.818491429E-2,-5.207626149E-2
2.443414615E0,-2.333505303E-1,-3.191770986E-2,-4.810563847E-2
2.445647342E0,-2.070833147E-1,-8.246680722E-3,-4.153883830E-2
2.447869693E0,-1.769981980E-1,1.786780916E-2,-4.245513305E-2
2.450123661E0,-1.470658034E-1,3.787364438E-2,-4.214970022E-2
2.452360233E0,-1.146899462E-1,5.910121277E-2,-4.291328415E-2
2.454601199E0,-8.231408894E-2,7.315111160E-2,-4.505131021E-2
2.456833438E0,-4.886921868E-2,8.338310570E-2,-4.841107130E-2
2.459069889E0,-1.160643995E-2,9.590584040E-2,-5.177082866E-2
2.461306583E0,2.672535367E-2,1.012509167E-1,-5.757404864E-2
2.463544071E0,6.368270516E-2,1.041525230E-1,-6.337726861E-2
2.465779361E0,1.044579595E-1,1.070541367E-1,-6.780604273E-2
2.468015812E0,1.450804919E-1,1.026253626E-1,-7.605272532E-2
2.470252262E0,1.831068546E-1,9.819658846E-2,-8.552113175E-2
2.472488895E0,2.273945808E-1,8.888089657E-2,-9.254608303E-2
2.474725528E0,2.715296149E-1,7.834346592E-2,-9.957103431E-2
2.476961979E0,3.144428730E-1,6.536258012E-2,-1.065959856E-1
2.479198673E0,3.559817076E-1,4.871650413E-2,-1.148426682E-1
2.481435673E0,4.010330439E-1,2.596177347E-2,-1.182024255E-1
2.483669498E0,4.450153410E-1,5.803219974E-3,-1.252273768E-1
2.485907779E0,4.914411008E-1,-1.817324013E-2,-1.324050426E-1
2.488143863E0,5.316054821E-1,-3.848451003E-2,-1.394299865E-1
2.490381473E0,5.729916096E-1,-6.352998316E-2,-1.452332139E-1
2.492617618E0,6.094908118E-1,-8.597928286E-2,-1.524108797E-1
2.494854190E0,6.436992288E-1,-1.036943719E-1,-1.583668143E-1
2.497090763E0,6.754642725E-1,-1.189660057E-1,-1.666134894E-1
2.499328251E0,7.047857642E-1,-1.365283877E-1,-1.762346178E-1
2.501563602E0,7.279986739E-1,-1.478293836E-1,-1.858557463E-1
2.503800174E0,7.451028824E-1,-1.554652005E-1,-1.992947906E-1
2.506036258E0,7.574729323E-1,-1.568396538E-1,-2.089159191E-1
2.508270450E0,7.649559975E-1,-1.569923609E-1,-2.186897546E-1
2.510498111E0,7.663304210E-1,-1.534798890E-1,-2.296853364E-1
2.512746952E0,7.638869882E-1,-1.533271819E-1,-2.394591719E-1
2.514983768E0,7.528914213E-1,-1.507309973E-1,-2.493857294E-1
2.517211552E0,7.370089293E-1,-1.455386430E-1,-2.530509233E-1
2.519455997E0,7.160868049E-1,-1.463022232E-1,-2.570215464E-1
2.521691287E0,6.892086864E-1,-1.421788931E-1,-2.547308207E-1
2.523931216E0,6.620252132E-1,-1.417207420E-1,-2.525927722E-1
2.526165104E0,6.250678897E-1,-1.385136992E-1,-2.466368377E-1
2.528401676E0,5.856670737E-1,-1.389718503E-1,-2.360994220E-1
2.530638065E0,5.487096906E-1,-1.345430762E-1,-2.215913683E-1
2.532874942E0,5.030475259E-1,-1.360702366E-1,-2.086104751E-1
2.535112430E0,4.598288238E-1,-1.328631938E-1,-1.905899495E-1
2.537347782E0,4.117231667E-1,-1.331686229E-1,-1.713477075E-1
2.539584110E0,3.597996235E-1,-1.357648075E-1,-1.510364264E-1
2.541820377E0,3.066543639E-1,-1.420261711E-1,-1.246165112E-1
2.544057254E0,2.495384514E-1,-1.518000066E-1,-9.941831976E-2
2.546293888E0,1.937969923E-1,-1.652390510E-1,-7.422012836E-2
2.548530399E0,1.403462887E-1,-1.776090711E-1,-4.780020565E-2
2.550767032E0,8.078692853E-2,-1.934915632E-1,-2.153299935E-2
2.553004825E0,2.733621933E-2,-2.093740702E-1,4.886921961E-3
2.555241092E0,-3.481931984E-2,-2.312124968E-1,3.115412779E-2
2.557476444E0,-9.330966324E-2,-2.495384514E-1,5.513058975E-2
2.559712467E0,-1.554652005E-1,-2.738203406E-1,7.651086897E-2
2.561949039E0,-2.188424766E-1,-2.981022298E-1,1.027780771E-1
2.564183597E0,-2.811507285E-1,-3.271183372E-1,1.217148975E-1
2.566413211E0,-3.448334336E-1,-3.623957932E-1,1.404990107E-1
2.568659061E0,-4.071416855E-1,-3.950771093E-1,1.582140923E-1
2.570896366E0,-4.683809280E-1,-4.352414906E-1,1.734857261E-1
2.573134280E0,-5.285511613E-1,-4.776966274E-1,1.912008226E-1
2.575368534E0,-5.873469114E-1,-5.213735104E-1,2.050980031E-1
2.577604557E0,-6.436992288E-1,-5.652030706E-1,2.203696370E-1
2.579841190E0,-6.988298297E-1,-6.090326309E-1,2.344195396E-1
2.582077945E0,-7.564038634E-1,-6.491970420E-1,2.484694421E-1
2.584314396E0,-8.066475391E-1,-6.919575930E-1,2.600758672E-1
2.586551517E0,-8.605564237E-1,-7.333437204E-1,2.729040384E-1
2.588788700E0,-9.130908251E-1,-7.687739134E-1,2.869539559E-1
2.591024112E0,-9.569203854E-1,-8.019133210E-1,2.987131178E-1
2.593257755E0,-1.005636930E0,-8.349000812E-1,3.116939962E-1
2.595482425E0,-1.050535560E0,-8.619308472E-1,3.234531581E-1
2.597718692E0,-1.095434070E0,-8.816312551E-1,3.376557529E-1
2.599958683E0,-1.141401768E0,-8.990409374E-1,3.469714522E-1
2.602209721E0,-1.185994864E0,-9.101892114E-1,3.575088978E-1
2.604446293E0,-1.224326611E0,-9.143125415E-1,3.681990206E-1
2.606683658E0,-1.263880134E0,-9.159924388E-1,3.764457107E-1
2.608916080E0,-1.304502726E0,-9.201157689E-1,3.834706545E-1
2.611152713E0,-1.340391040E0,-9.266825914E-1,3.878994286E-1
2.613388737E0,-1.375210404E0,-9.418014884E-1,3.900374472E-1
2.615625553E0,-1.407586217E0,-9.605855942E-1,3.885102868E-1
2.617861881E0,-1.435227871E0,-9.854783416E-1,3.845396638E-1
2.620098514E0,-1.465465665E0,-1.023657441E0,3.706424832E-1
2.622335330E0,-1.490816593E0,-1.068097830E0,3.543018401E-1
2.624572940E0,-1.512655020E0,-1.121090412E0,3.342960179E-1
2.626809208E0,-1.532202721E0,-1.181413412E0,3.081815243E-1
2.629044620E0,-1.544267297E0,-1.239445567E0,2.785545588E-1
2.631280705E0,-1.547779799E0,-1.303586483E0,2.452623993E-1
2.633512760E0,-1.548848867E0,-1.370323420E0,2.093740702E-1
2.635742374E0,-1.543656468E0,-1.426217675E0,1.701259762E-1
2.637990787E0,-1.530981064E0,-1.481042743E0,1.333213449E-1
2.640227908E0,-1.514334917E0,-1.525177836E0,9.162978828E-2
2.642467899E0,-1.490358472E0,-1.571756244E0,5.009094998E-2
2.644700016E0,-1.461189628E0,-1.603826642E0,9.773843922E-3
2.646936649E0,-1.420872569E0,-1.631315589E0,-3.161227703E-2
2.649172916E0,-1.375363111E0,-1.647961736E0,-6.918048859E-2
2.651409854E0,-1.329853654E0,-1.660942554E0,-1.055269688E-1
2.653646427E0,-1.274264932E0,-1.664455056E0,-1.430951804E-1
2.655882999E0,-1.215927243E0,-1.657124639E0,-1.756237596E-1
2.658119754E0,-1.153924465E0,-1.646129131E0,-2.043344229E-1
2.660357730E0,-1.087034702E0,-1.632995486E0,-2.306016237E-1
2.662596012E0,-1.016174316E0,-1.603979468E0,-2.556470931E-1
2.664828678E0,-9.439395070E-1,-1.577406764E0,-2.780964077E-1
2.667065128E0,-8.681922555E-1,-1.550986886E0,-2.970332205E-1
2.669301211E0,-7.948883772E-1,-1.519680023E0,-3.121521473E-1
2.671538517E0,-7.215845585E-1,-1.490816593E0,-3.297145069E-1
2.673775089E0,-6.456845403E-1,-1.460731506E0,-3.436116874E-1
2.676011844E0,-5.760459304E-1,-1.426828504E0,-3.552181423E-1
2.678249088E0,-5.086980462E-1,-1.393078208E0,-3.654501438E-1
2.680483462E0,-4.415028691E-1,-1.356731653E0,-3.720169365E-1
2.682717838E0,-3.753767014E-1,-1.317941785E0,-3.787364662E-1
2.684957096E0,-3.203988075E-1,-1.278999090E0,-3.842342496E-1
2.687194034E0,-2.641992271E-1,-1.241278172E0,-3.885102868E-1
2.689431338E0,-2.116648108E-1,-1.200961113E0,-3.927863538E-1
2.691667118E0,-1.591303945E-1,-1.158353209E0,-3.982841372E-1
2.693903690E0,-1.101084575E-1,-1.115592599E0,-4.001167417E-1
2.696141300E0,-6.872233748E-2,-1.073901057E0,-4.057672322E-1
2.698374820E0,-2.840523422E-2,-1.033431292E0,-4.161519408E-1
2.700601200E0,7.177666761E-3,-9.868528247E-1,-4.279111028E-1
2.702849247E0,4.382958263E-2,-9.462302923E-1,-4.408919811E-1
2.705085758E0,7.910704613E-2,-9.069821835E-1,-4.538728893E-1
2.707325626E0,1.168279797E-1,-8.749117255E-1,-4.743368626E-1
2.709556217E0,1.508837193E-1,-8.403978348E-1,-4.970915914E-1
2.711783817E0,1.849394590E-1,-8.118399382E-1,-5.224425197E-1
2.714033085E0,2.176207453E-1,-7.858781219E-1,-5.476406813E-1
2.716268741E0,2.504547536E-1,-7.573201656E-1,-5.778785348E-1
2.718508549E0,2.831360400E-1,-7.360926270E-1,-6.093381047E-1
2.720741581E0,3.194825351E-1,-7.150177956E-1,-6.407976151E-1
2.722978092E0,3.509420753E-1,-6.901249886E-1,-6.783658266E-1
2.725214420E0,3.813326359E-1,-6.664539576E-1,-7.147123218E-1
2.727448306E0,4.127921760E-1,-6.464481354E-1,-7.522805333E-1
2.729676151E0,4.393648207E-1,-6.201809645E-1,-7.935139537E-1
2.731925235E0,4.723515511E-1,-5.881105065E-1,-8.335255980E-1
2.734158206E0,5.016731024E-1,-5.534439087E-1,-8.747590184E-1
2.736390079E0,5.247332454E-1,-5.212207437E-1,-9.172141552E-1
2.738633671E0,5.516113043E-1,-4.828889668E-1,-9.596692920E-1
2.740870243E0,5.761986375E-1,-4.396702647E-1,-1.003346205E0
2.743109378E0,6.021603942E-1,-3.940080702E-1,-1.049466491E0
2.745343387E0,6.241515875E-1,-3.495676219E-1,-1.090699911E0
2.747580204E0,6.452264190E-1,-3.002402782E-1,-1.134376764E0
2.749817264E0,6.586654782E-1,-2.554943860E-1,-1.175610185E0
2.752052860E0,6.699664593E-1,-2.011273801E-1,-1.212109327E0
2.754289432E0,6.824892163E-1,-1.430951804E-1,-1.247234106E0
2.756525760E0,6.850853562E-1,-8.735372871E-2,-1.282358885E0
2.758762333E0,6.889032722E-1,-2.794708498E-2,-1.313971162E0
2.760998905E0,6.904304624E-1,3.390302137E-2,-1.341765523E0
2.763235416E0,6.882924438E-1,1.030835137E-1,-1.368490815E0
2.765469669E0,6.823364496E-1,1.711949855E-1,-1.390329242E0
2.767700077E0,6.730207801E-1,2.478585690E-1,-1.409571528E0
2.769945926E0,6.672175527E-1,3.184134960E-1,-1.427744746E0
2.772181522E0,6.589708924E-1,3.912591934E-1,-1.442252874E0
2.774419986E0,6.519459486E-1,4.667010605E-1,-1.454164743E0
2.776654117E0,6.459900141E-1,5.348125100E-1,-1.458898902E0
2.778890751E0,6.411030889E-1,6.015495658E-1,-1.463480353E0
2.781127628E0,6.363688707E-1,6.684392691E-1,-1.462105989E0
2.783364444E0,6.327036619E-1,7.341073155E-1,-1.456913590E0
2.785598148E0,6.276640296E-1,7.900014520E-1,-1.453095675E0
2.787822635E0,6.261368990E-1,8.410087228E-1,-1.443169117E0
2.790073551E0,6.210972667E-1,8.969029188E-1,-1.429424644E0
2.792309635E0,6.159048676E-1,9.527970552E-1,-1.413389444E0
2.794546268E0,6.070473194E-1,1.006400466E0,-1.391245604E0
2.796767643E0,5.957463384E-1,1.064890862E0,-1.364214778E0
2.799019413E0,5.855143666E-1,1.120937705E0,-1.332144380E0
2.801256351E0,5.702427030E-1,1.167363524E0,-1.300379395E0
2.803497867E0,5.523748994E-1,1.211345792E0,-1.264796495E0
2.805729190E0,5.320636034E-1,1.251815557E0,-1.225701094E0
2.807965702E0,5.077817440E-1,1.283733368E0,-1.182940602E0
2.810201725E0,4.810563922E-1,1.312138557E0,-1.137736559E0
2.812438907E0,4.479169548E-1,1.338405728E0,-1.089020014E0
2.814675418E0,4.159992337E-1,1.359633327E0,-1.040303469E0
2.816911808E0,3.741549551E-1,1.376126647E0,-9.867000580E-1
2.819148563E0,3.346014321E-1,1.390329242E0,-9.294314981E-1
2.821385807E0,2.864958048E-1,1.405753613E0,-8.698720932E-1
2.823621219E0,2.394591719E-1,1.417665482E0,-8.054258227E-1
2.825857792E0,1.850921661E-1,1.428355694E0,-7.385360599E-1
2.828094120E0,1.307251602E-1,1.439198494E0,-6.716463566E-1
2.830326847E0,7.635815442E-2,1.449888706E0,-6.096435189E-1
2.832550846E0,1.450804994E-2,1.459509730E0,-5.488623977E-1
2.834803592E0,-5.100724846E-2,1.468061924E0,-4.894557893E-1
2.837040653E0,-1.177442744E-1,1.473101497E0,-4.349360466E-1
2.839282352E0,-1.857030392E-1,1.480431914E0,-3.804163337E-1
2.841514591E0,-2.585487068E-1,1.483028054E0,-3.309362531E-1
2.843749820E0,-3.364340365E-1,1.481042743E0,-2.887865305E-1
2.845985966E0,-4.095851481E-1,1.473865151E0,-2.466368377E-1
2.848222721E0,-4.851797223E-1,1.461953282E0,-2.118175179E-1
2.850459354E0,-5.619960427E-1,1.444085479E0,-1.782199293E-1
2.852695987E0,-6.342308521E-1,1.418734550E0,-1.484402567E-1
2.854932743E0,-7.049384713E-1,1.397201538E0,-1.209513173E-1
2.857170047E0,-7.710646391E-1,1.365589261E0,-9.712757170E-2
2.859402408E0,-8.347473741E-1,1.328021049E0,-7.696902007E-2
2.861630008E0,-8.909469843E-1,1.292743564E0,-6.169738993E-2
2.863878238E0,-9.373727441E-1,1.254869938E0,-4.886921868E-2
2.866112491E0,-9.824240208E-1,1.218065262E0,-3.955352306E-2
2.868344913E0,-1.018923283E0,1.181107998E0,-3.268129006E-2
2.870588016E0,-1.041983366E0,1.137889266E0,-2.809980139E-2
2.872824893E0,-1.058934927E0,1.091005325E0,-3.100141138E-2
2.875064517E0,-1.066112518E0,1.043815970E0,-3.359758854E-2
2.877297489E0,-1.065807104E0,9.952521920E-1,-3.878994286E-2
2.879534061E0,-1.058171272E0,9.428704977E-1,-4.505131021E-2
2.881769107E0,-1.041983366E0,8.878926635E-1,-5.726861581E-2
2.884002140E0,-1.010982037E0,8.339837790E-1,-6.704246253E-2
2.886243778E0,-9.776898026E-1,7.738135457E-1,-7.925976813E-2
2.888480106E0,-9.330966473E-1,7.171558142E-1,-9.621127695E-2
2.890718204E0,-8.886561990E-1,6.580545902E-1,-1.107193232E-1
2.892954166E0,-8.342891932E-1,6.047565937E-1,-1.301143020E-1
2.895189579E0,-7.750352621E-1,5.465716720E-1,-1.493565589E-1
2.897427372E0,-7.118107080E-1,4.943426847E-1,-1.687515229E-1
2.899667301E0,-6.438519955E-1,4.421137273E-1,-1.902845204E-1
2.901899051E0,-5.707008839E-1,3.993531466E-1,-2.095267773E-1
2.904134647E0,-4.951062799E-1,3.543018401E-1,-2.298380435E-1
2.906367069E0,-4.169155359E-1,3.187189400E-1,-2.513710558E-1
2.908609073E0,-3.376557529E-1,2.784018219E-1,-2.715296149E-1
2.910846561E0,-2.593123019E-1,2.440406680E-1,-2.942843437E-1
2.913083621E0,-1.771509200E-1,2.218967974E-1,-3.119994104E-1
2.915318302E0,-9.758572280E-2,1.947132945E-1,-3.310889602E-1
2.917554813E0,-1.542434748E-2,1.750128865E-1,-3.488040566E-1
2.919791202E0,6.215553731E-2,1.673770845E-1,-3.640756905E-1
2.922027958E0,1.372919679E-1,1.660026312E-1,-3.793473244E-1
2.924264225E0,2.150245607E-1,1.679879427E-1,-3.933972120E-1
2.926497684E0,2.890919745E-1,1.763873398E-1,-4.060726762E-1
2.928724674E0,3.572034538E-1,1.919644028E-1,-4.189008474E-1
2.930973758E0,4.242459238E-1,2.113593817E-1,-4.292855561E-1
2.933210331E0,4.886921942E-1,2.330450863E-1,-4.360050559E-1
2.935450077E0,5.520694852E-1,2.585487068E-1,-4.463897645E-1
2.937683475E0,6.105598211E-1,2.889392674E-1,-4.531092942E-1
2.939919864E0,6.604980230E-1,3.147483170E-1,-4.599815309E-1
2.942156620E0,7.128797174E-1,3.475823104E-1,-4.642575979E-1
2.944393253E0,7.591527700E-1,3.819434941E-1,-4.721988440E-1
2.946630741E0,8.028296232E-1,4.138612151E-1,-4.754058719E-1
2.948865787E0,8.416196108E-1,4.410447180E-1,-4.761694670E-1
2.951102420E0,8.743008971E-1,4.706716835E-1,-4.758640230E-1
2.953338688E0,9.056077003E-1,5.028948188E-1,-4.692972302E-1
2.955575626E0,9.308059216E-1,5.338962078E-1,-4.628831446E-1
2.957812137E0,9.497427344E-1,5.601634383E-1,-4.576907754E-1
2.960048526E0,9.650143981E-1,5.841398835E-1,-4.500549734E-1
2.962285526E0,9.753990769E-1,6.131559610E-1,-4.425718784E-1
2.964522769E0,9.793697000E-1,6.323982477E-1,-4.326453209E-1
2.966758915E0,9.773843884E-1,6.543893814E-1,-4.265366495E-1
2.968994449E0,9.703594446E-1,6.727153659E-1,-4.202753007E-1
2.971230839E0,9.619600177E-1,6.873761415E-1,-4.141666293E-1
2.973467472E0,9.436340928E-1,6.974554062E-1,-4.130976200E-1
2.975702030E0,9.191994667E-1,7.076873779E-1,-4.120286107E-1
2.977931766E0,8.923214078E-1,7.118107080E-1,-4.159992337E-1
2.980177432E0,8.602510095E-1,7.111998796E-1,-4.199698567E-1
2.982415225E0,8.232936263E-1,7.082982659E-1,-4.276056588E-1
2.984653751E0,7.861835957E-1,6.980662346E-1,-4.352414906E-1
2.986886844E0,7.466300726E-1,6.806566119E-1,-4.479169548E-1
2.989122867E0,7.020368576E-1,6.670648456E-1,-4.544837475E-1
2.991359379E0,6.525567770E-1,6.559165716E-1,-4.634940028E-1
2.993596012E0,6.068946123E-1,6.446155310E-1,-4.700607955E-1
2.995832645E0,5.586362481E-1,6.298020482E-1,-4.741841555E-1
2.998069461E0,5.090034604E-1,6.137668490E-1,-4.783074856E-1
3.000306888E0,4.557054639E-1,5.966626406E-1,-4.789183438E-1
3.002542606E0,4.025602043E-1,5.806274414E-1,-4.781547785E-1
3.004775821E0,3.553708494E-1,5.658139586E-1,-4.761694670E-1
3.007000675E0,3.107776940E-1,5.532912016E-1,-4.705189466E-1
3.009237430E0,2.663372457E-1,5.468770862E-1,-4.636467099E-1
3.011477054E0,2.064724565E-1,5.164865851E-1,-4.470006526E-1
3.013728152E0,3.298672289E-2,2.747366428E-1,-4.618141353E-1
3.015964786E0,-3.068070710E-1,-2.052507252E-1,-6.207917929E-1
3.018202213E0,-6.250678897E-1,-5.897904038E-1,-7.693848014E-1
3.020434391E0,-7.745771408E-1,-6.765332818E-1,-7.625125647E-1
3.022671024E0,-8.330674767E-1,-6.717990637E-1,-6.748533845E-1
3.024907291E0,-8.498662710E-1,-6.763805151E-1,-5.685628057E-1
3.027144168E0,-8.533787727E-1,-6.908885837E-1,-4.634940028E-1
3.029380436E0,-8.556694984E-1,-7.139487267E-1,-3.743076921E-1
3.031616764E0,-8.713992834E-1,-7.415903807E-1,-3.046690524E-1
3.033853580E0,-9.056077003E-1,-7.761042714E-1,-2.660318017E-1
3.036090946E0,-9.558513761E-1,-8.162686825E-1,-2.483167201E-1
3.038326603E0,-1.014647126E0,-8.564330935E-1,-2.403754741E-1
3.040563114E0,-1.073137522E0,-8.917105198E-1,-2.348776907E-1
3.042799198E0,-1.126893640E0,-9.271407127E-1,-2.293798923E-1
3.045036014E0,-1.174388409E0,-9.601274729E-1,-2.261728644E-1
3.047269656E0,-1.218065262E0,-9.883799553E-1,-2.217440903E-1
3.049497440E0,-1.257771492E0,-9.996809959E-1,-2.197587788E-1
3.051745792E0,-1.294576168E0,-9.978483915E-1,-2.163990140E-1
3.053983585E0,-1.333824277E0,-9.873109460E-1,-2.118175179E-1
3.056222782E0,-1.373683214E0,-1.002277136E0,-2.011273801E-1
3.058455265E0,-1.424079657E0,-1.057255030E0,-1.933388561E-1
3.060691471E0,-1.464091301E0,-1.086729288E0,-1.913535446E-1
3.062927799E0,-1.493870974E0,-1.099557400E0,-1.941024363E-1
3.065164676E0,-1.519832730E0,-1.111163855E0,-2.052507252E-1
3.067401249E0,-1.536936998E0,-1.110858440E0,-2.214386463E-1
3.069638126E0,-1.546710849E0,-1.111774802E0,-2.336559594E-1
3.071875370E0,-1.553888440E0,-1.100779176E0,-2.385428846E-1
3.074108462E0,-1.551139593E0,-1.089936256E0,-2.373211533E-1
3.076335452E0,-1.543656468E0,-1.079093456E0,-2.261728644E-1
3.078572330E0,-1.536173344E0,-1.068403363E0,-2.028072625E-1
3.080820255E0,-1.532508135E0,-1.055117011E0,-1.708895564E-1
3.083059207E0,-1.511280656E0,-1.030071497E0,-1.375973970E-1
3.085295902E0,-1.492343783E0,-9.987646937E-1,-1.104138941E-1
3.087530216E0,-1.460884213E0,-9.556986690E-1,-8.674286306E-2
3.089767521E0,-1.429271936E0,-9.066767693E-1,-7.040221989E-2
3.092003360E0,-1.398728728E0,-8.575021029E-1,-6.001751125E-2
3.094236453E0,-1.368338108E0,-8.144360781E-1,-5.115996301E-2
3.096461063E0,-1.340543747E0,-7.761042714E-1,-4.825835302E-2
3.098700809E0,-1.310458660E0,-7.499898076E-1,-4.550946131E-2
3.100949405E0,-1.282969713E0,-7.310529947E-1,-4.505131021E-2
3.103188602E0,-1.256855249E0,-7.194465399E-1,-4.978551716E-2
3.105425236E0,-1.231962442E0,-7.090618610E-1,-5.803219974E-2
3.107659732E0,-1.210887671E0,-7.058547735E-1,-7.131851465E-2
3.109895084E0,-1.193477988E0,-7.024950385E-1,-9.193521738E-2
3.112131473E0,-1.179733515E0,-6.991352439E-1,-1.127046347E-1
3.114366458E0,-1.169654250E0,-6.944010854E-1,-1.333213449E-1
3.116599430E0,-1.158200502E0,-6.849326491E-1,-1.502728462E-1
3.118840946E0,-1.146746755E0,-6.705773473E-1,-1.661553532E-1
3.121077518E0,-1.138958216E0,-6.513350606E-1,-1.708895564E-1
3.123315616E0,-1.127504468E0,-6.345362663E-1,-1.632537395E-1
3.125551883E0,-1.117730737E0,-6.250678897E-1,-1.264491081E-1
3.127787967E0,-1.096197724E0,-6.194173694E-1,-3.329215571E-2
3.130023563E0,-1.068097830E0,-6.310238242E-1,1.528690308E-1
3.132259830E0,-1.039387226E0,-6.473644376E-1,3.941608071E-1
3.134496280E0,-1.031293273E0,-6.669121385E-1,5.899431109E-1
3.136733280E0,-1.046259403E0,-7.055493593E-1,6.899722815E-1
3.138969608E0,-1.064585447E0,-7.512115240E-1,7.128797174E-1
3.141206546E0,-1.088409185E0,-7.872526050E-1,6.757696867E-1
3.143443057E0,-1.114065528E0,-7.964155674E-1,6.143777370E-1
3.145675663E0,-1.141707182E0,-7.849618196E-1,5.468770862E-1
3.147915653E0,-1.170417786E0,-7.564038634E-1,5.051855445E-1
3.150151920E0,-1.193936110E0,-7.098253965E-1,4.868595898E-1
3.152389712E0,-1.217607141E0,-6.608034968E-1,4.868595898E-1
3.154625431E0,-1.243721604E0,-6.130032539E-1,4.915938079E-1
3.156861942E0,-1.272279620E0,-5.639813542E-1,4.891503453E-1
3.159098575E0,-1.299463034E0,-5.184718966E-1,4.757113159E-1
3.161336063E0,-1.326951981E0,-4.839579761E-1,4.499022663E-1
3.163571354E0,-1.353219271E0,-4.543310404E-1,4.155410826E-1
3.165807804E0,-1.375821233E0,-4.308127165E-1,3.750712574E-1
3.168044254E0,-1.393689036E0,-4.134030640E-1,3.309362531E-1
3.170280887E0,-1.406669974E0,-4.010330439E-1,2.855795026E-1
3.172517521E0,-1.417207360E0,-3.898847401E-1,2.402227521E-1
3.174754032E0,-1.425454021E0,-3.836233616E-1,1.985312104E-1
3.176990909E0,-1.430035591E0,-3.836233616E-1,1.557706445E-1
3.179228153E0,-1.428661108E0,-3.872885704E-1,1.189660057E-1
3.181461795E0,-1.430799127E0,-3.908010423E-1,7.987063378E-2
3.183693180E0,-1.428355694E0,-4.017966092E-1,3.940080851E-2
3.185936161E0,-1.425912142E0,-4.127921760E-1,5.192354787E-3
3.188173221E0,-1.417207360E0,-4.190535545E-1,-3.039054573E-2
3.190411258E0,-1.412167788E0,-4.288274050E-1,-5.971207842E-2
3.192646122E0,-1.401172161E0,-4.448626041E-1,-9.269879758E-2
3.194882694E0,-1.387733102E0,-4.547891617E-1,-1.183551401E-1
3.197120548E0,-1.374141335E0,-4.659374654E-1,-1.452332139E-1
3.199356876E0,-1.354593635E0,-4.760167301E-1,-1.707368344E-1
3.201592472E0,-1.336115003E0,-4.824308157E-1,-1.925752759E-1
3.203828434E0,-1.312749386E0,-4.926628172E-1,-2.157881409E-1
3.206064823E0,-1.285718679E0,-5.077817440E-1,-2.400700450E-1
3.208298831E0,-1.260215044E0,-5.300782919E-1,-2.643519342E-1
3.210523319E0,-1.244637966E0,-5.642867684E-1,-2.900082767E-1
3.212761051E0,-1.238071084E0,-6.093381047E-1,-3.208569586E-1
3.215000125E0,-1.243874311E0,-6.650795341E-1,-3.541491330E-1
3.217236332E0,-1.255786180E0,-7.206682563E-1,-3.911064863E-1
3.219473148E0,-1.268767118E0,-7.677049041E-1,-4.282165468E-1
3.221709720E0,-1.289078355E0,-8.086328506E-1,-4.639521539E-1
3.223945865E0,-1.312902093E0,-8.408560157E-1,-5.022839308E-1
3.226186222E0,-1.337947607E0,-8.743008971E-1,-5.367978215E-1
3.228431461E0,-1.360702276E0,-9.127854109E-1,-5.677992702E-1
3.230655704E0,-1.380708218E0,-9.414960742E-1,-6.035348773E-1
3.232892826E0,-1.397048831E0,-9.654725194E-1,-6.331618428E-1
3.235125308E0,-1.408044338E0,-9.773843884E-1,-6.614143252E-1
3.237364872E0,-1.410487890E0,-9.833403230E-1,-6.884451509E-1
3.239601200E0,-1.405295491E0,-9.798278809E-1,-7.141014934E-1
3.241837955E0,-1.389107585E0,-9.728028774E-1,-7.322747111E-1
3.244074344E0,-1.359175205E0,-9.660834074E-1,-7.515169382E-1
3.246310795E0,-1.326035738E0,-9.752463698E-1,-7.757988572E-1
3.248550114E0,-1.279915452E0,-9.579893947E-1,-7.961101532E-1
3.250799442E0,-1.225548387E0,-8.898779750E-1,-8.100073338E-1
3.253034976E0,-1.172097683E0,-8.035932183E-1,-8.214610219E-1
3.255271426E0,-1.110858440E0,-7.064656615E-1,-8.315402865E-1
3.257504764E0,-1.048244715E0,-5.972734690E-1,-8.416196108E-1
3.259741520E0,-9.767735004E-1,-4.723515511E-1,-8.466592431E-1
3.261977909E0,-9.063712955E-1,-3.439171314E-1,-8.503243923E-1
3.264211490E0,-8.312348723E-1,-2.142609805E-1,-8.480336666E-1
3.266439395E0,-7.536550164E-1,-9.453139454E-2,-8.468119502E-1
3.268689151E0,-6.774495840E-1,1.695151068E-2,-8.481863737E-1
3.270925235E0,-6.003278494E-1,1.160643995E-1,-8.483390808E-1
3.273163822E0,-5.235115290E-1,1.996002197E-1,-8.547531962E-1
3.275396182E0,-4.494441152E-1,2.709187269E-1,-8.587238193E-1
3.277629947E0,-3.744603992E-1,3.265074790E-1,-8.639161587E-1
3.279869938E0,-3.057380617E-1,3.700316250E-1,-8.741481900E-1
3.282106449E0,-2.396118939E-1,4.075998366E-1,-8.833111525E-1
3.284343998E0,-1.797471046E-1,4.416555762E-1,-8.912523985E-1
3.286580753E0,-1.261436790E-1,4.709770977E-1,-9.016370773E-1
3.288816349E0,-8.384125680E-2,4.943426847E-1,-9.048441648E-1
3.291052921E0,-4.276056588E-2,5.141957998E-1,-9.080511928E-1
3.293288944E0,-1.145372353E-2,5.390886068E-1,-9.138544202E-1
3.295525699E0,1.618792862E-2,5.652030706E-1,-9.111055136E-1
3.297762088E0,4.001167417E-2,5.939137340E-1,-9.057604671E-1
3.299998905E0,5.772676691E-2,6.201809645E-1,-8.982773423E-1
3.302235538E0,6.811147183E-2,6.491970420E-1,-8.857545853E-1
3.304473087E0,7.605272532E-2,6.817256212E-1,-8.697193861E-1
3.306708377E0,7.895433158E-2,7.107416987E-1,-8.512406945E-1
3.308944950E0,8.185594529E-2,7.399105430E-1,-8.339837790E-1
3.311181034E0,8.353582025E-2,7.664831877E-1,-8.155050874E-1
3.313418216E0,8.261952549E-2,7.895433307E-1,-7.958046794E-1
3.315654850E0,7.803803682E-2,8.103127480E-1,-7.773260474E-1
3.317890751E0,7.819075137E-2,8.272642493E-1,-7.577783465E-1
3.320127567E0,7.590000331E-2,8.370380998E-1,-7.380779386E-1
3.322364994E0,7.452555746E-2,8.419250250E-1,-7.197519541E-1
3.324600528E0,6.948592514E-2,8.420777321E-1,-7.026477456E-1
3.326837040E0,6.566801667E-2,8.396342993E-1,-6.831000447E-1
3.329073124E0,6.291911751E-2,8.300131559E-1,-6.698137522E-1
3.331310184E0,6.123924255E-2,8.130616546E-1,-6.575964093E-1
3.333546512E0,5.589416996E-2,7.961101532E-1,-6.467535496E-1
3.335783146E0,5.039638281E-2,7.695375085E-1,-6.333145499E-1
3.338019901E0,3.588833287E-2,7.310529947E-1,-6.226243973E-1
3.340257511E0,7.788531948E-3,6.843217611E-1,-6.133087277E-1
3.342491764E0,-2.809980139E-2,6.169738770E-1,-5.991060734E-1
3.344721073E0,-8.277224004E-2,5.380195379E-1,-5.852088928E-1
3.346965458E0,-1.398881376E-1,4.554000497E-1,-5.629123449E-1
3.349201969E0,-2.008219510E-1,3.788891733E-1,-5.367978215E-1
3.351440616E0,-2.677116990E-1,3.074179292E-1,-5.021312237E-1
3.353675174E0,-3.333797157E-1,2.431243658E-1,-4.601342380E-1
3.355911991E0,-3.962988257E-1,1.908953935E-1,-4.143193662E-1
3.358149356E0,-4.579962194E-1,1.435533315E-1,-3.599523604E-1
3.360384891E0,-5.169447064E-1,1.035416573E-1,-3.006984293E-1
3.362621158E0,-5.746715069E-1,7.055493444E-2,-2.414444834E-1
3.364857303E0,-6.311765313E-1,4.260785133E-2,-1.808161139E-1
3.367094364E0,-6.727153659E-1,2.031126991E-2,-1.139263660E-1
3.369330997E0,-6.750060916E-1,-2.748893574E-3,-2.718350291E-2
3.371567569E0,-6.294966340E-1,-2.916881628E-2,9.056077152E-2
3.373804080E0,-5.511531830E-1,-6.948592514E-2,2.159408629E-1
3.376041385E0,-4.621195495E-1,-1.295034289E-1,3.301726580E-1
3.378277042E0,-3.866777122E-1,-2.086104751E-1,4.149302244E-1
3.380513797E0,-3.419318199E-1,-2.919935882E-1,4.676173329E-1
3.382749576E0,-3.203988075E-1,-3.714060783E-1,4.918992519E-1
3.384986210E0,-3.303253949E-1,-4.390594065E-1,4.842634201E-1
3.387222965E0,-3.605632186E-1,-4.847215712E-1,4.630358517E-1
3.389459659E0,-4.051563740E-1,-5.093088746E-1,4.306600094E-1
3.391696475E0,-4.615086913E-1,-5.033529401E-1,3.996585906E-1
3.393933475E0,-5.135849714E-1,-4.731151462E-1,3.712533414E-1
3.396169010E0,-5.590944290E-1,-4.115704596E-1,3.552181423E-1
3.398405399E0,-5.858197808E-1,-3.358231783E-1,3.503312171E-1
3.400641971E0,-5.952881575E-1,-2.530509233E-1,3.518583775E-1
3.402878482E0,-6.000223756E-1,-1.814269722E-1,3.617849350E-1
3.405114933E0,-5.989533663E-1,-1.256855279E-1,3.681990206E-1
3.407351688E0,-5.945246220E-1,-9.056077152E-2,3.683517575E-1
3.409588504E0,-5.916230083E-1,-7.116580009E-2,3.587306142E-1
3.411825870E0,-5.911648273E-1,-5.665775016E-2,3.440698385E-1
3.414062137E0,-5.858197808E-1,-3.726277873E-2,3.283400834E-1
3.416297733E0,-5.777258277E-1,-5.803219974E-3,3.162754774E-1
3.418534122E0,-5.494732857E-1,5.177082866E-2,3.240640163E-1
3.420770633E0,-4.986187518E-1,1.406517178E-1,3.579670191E-1
3.423007206E0,-4.427245855E-1,2.414444834E-1,3.930917978E-1
3.425243778E0,-3.878994286E-1,3.387247920E-1,4.257730842E-1
3.427480594E0,-3.422372639E-1,4.153883755E-1,4.508185387E-1
3.429717899E0,-3.078760803E-1,4.754058719E-1,4.660901725E-1
3.431953251E0,-2.712241709E-1,5.268712640E-1,4.728097022E-1
3.434189518E0,-2.420553565E-1,5.700899959E-1,4.755585790E-1
3.436424869E0,-2.130392492E-1,6.046038866E-1,4.747950137E-1
3.438662723E0,-1.879937798E-1,6.223189831E-1,4.641048610E-1
3.440899295E0,-1.656972021E-1,6.243042946E-1,4.508185387E-1
3.443136112E0,-1.534798890E-1,6.155994534E-1,4.324925840E-1
3.445372013E0,-1.487456858E-1,5.937610269E-1,4.105014503E-1
3.447605350E0,-1.432479024E-1,5.572618246E-1,3.871358633E-1
3.449834598E0,-1.389718503E-1,5.122104883E-1,3.611740768E-1
3.452081974E0,-1.472185254E-1,4.613559842E-1,3.339905739E-1
3.454318729E0,-1.577559561E-1,4.167627990E-1,3.068070710E-1
3.456557742E0,-1.757764816E-1,3.746131063E-1,2.784018219E-1
3.458791385E0,-1.985312104E-1,3.338378668E-1,2.510656118E-1
3.461027958E0,-2.186897546E-1,2.990185320E-1,2.251038402E-1
3.463264774E0,-2.464841306E-1,2.570215464E-1,2.026545405E-1
3.465502140E0,-2.767219543E-1,2.139555514E-1,1.777617931E-1
3.467737674E0,-3.118467033E-1,1.722639948E-1,1.528690308E-1
3.469974002E0,-3.420845270E-1,1.302670091E-1,1.291979998E-1
3.472210331E0,-3.747658134E-1,9.086620808E-2,1.030835137E-1
3.474447086E0,-4.109596014E-1,5.879577994E-2,7.559457421E-2
3.476683475E0,-4.408919811E-1,2.916881628E-2,4.963280261E-2
3.478919986E0,-4.732678533E-1,4.276056774E-3,2.229658142E-2
3.481156681E0,-5.028948188E-1,-9.773843922E-3,-9.773843922E-3
3.483394718E0,-5.309945941E-1,-1.404990070E-2,-4.321871698E-2
3.485630802E0,-5.526803136E-1,-1.527163084E-3,-8.002334833E-2
3.487866397E0,-5.702427030E-1,2.916881628E-2,-1.178969890E-1
3.490102421E0,-5.809328556E-1,9.621127695E-2,-1.557706445E-1
3.492339237E0,-5.849034786E-1,1.908953935E-1,-1.994474977E-1
3.494575809E0,-5.887213945E-1,2.904664278E-1,-2.455678284E-1
3.496812381E0,-5.827654600E-1,3.827070892E-1,-2.890919745E-1
3.499048954E0,-5.743660331E-1,4.831944108E-1,-3.364340365E-1
3.501286502E0,-5.645921826E-1,5.777258277E-1,-3.872885704E-1
3.503521854E0,-5.479460955E-1,6.574437022E-1,-4.382958114E-1
3.505758487E0,-5.276348591E-1,7.310529947E-1,-4.879286289E-1
3.507991825E0,-5.001459122E-1,7.961101532E-1,-5.387831330E-1
3.510219913E0,-4.725042582E-1,8.611672521E-1,-5.873469114E-1
3.512466739E0,-4.465425014E-1,9.152288437E-1,-6.369797587E-1
3.514698856E0,-4.218024611E-1,9.621127844E-1,-6.892086864E-1
3.516944217E0,-3.958406746E-1,1.010065675E0,-7.377725244E-1
3.519178531E0,-3.688098788E-1,1.053284407E0,-7.790058851E-1
3.521415348E0,-3.407101035E-1,1.090394497E0,-8.177958727E-1
3.523650455E0,-3.153591752E-1,1.114218235E0,-8.565858006E-1
3.525886661E0,-2.877175212E-1,1.129337072E0,-8.868235946E-1
3.528123905E0,-2.603813112E-1,1.133765936E0,-9.123272300E-1
3.530359989E0,-2.368630022E-1,1.134529471E0,-9.341656566E-1
3.532596622E0,-2.124283910E-1,1.123075724E0,-9.498954415E-1
3.534833377E0,-1.855503172E-1,1.103069901E0,-9.619600177E-1
3.537070926E0,-1.601994038E-1,1.078329921E0,-9.715811610E-1
3.539306095E0,-1.372919679E-1,1.048855662E0,-9.752463698E-1
3.541541019E0,-1.168279797E-1,1.030224204E0,-9.714284539E-1
3.543771488E0,-9.498954564E-2,1.014036298E0,-9.651671052E-1
3.546011600E0,-7.559457421E-2,1.002735257E0,-9.529497623E-1
3.548236454E0,-5.742133409E-2,9.950994849E-1,-9.381362796E-1
3.550490726E0,-4.062253982E-2,9.837985039E-1,-9.172141552E-1
3.552725528E0,-2.855795063E-2,9.750936627E-1,-8.962920308E-1
3.554966983E0,-2.031126991E-2,9.651671052E-1,-8.706356883E-1
3.557199344E0,-1.099557430E-2,9.492846131E-1,-8.497135639E-1
3.559434940E0,-7.788531948E-3,9.334021211E-1,-8.265006542E-1
3.561668033E0,-8.246680722E-3,9.164505601E-1,-8.009970784E-1
3.563895633E0,-1.618792862E-2,8.959866166E-1,-7.790058851E-1
3.566144413E0,-2.809980139E-2,8.657487631E-1,-7.571674585E-1
3.568380985E0,-4.749477282E-2,8.297077417E-1,-7.379252315E-1
3.570620670E0,-6.933320314E-2,7.877107263E-1,-7.225008607E-1
3.572855350E0,-9.972374886E-2,7.483099103E-1,-7.105889916E-1
3.575090458E0,-1.302670091E-1,7.040221691E-1,-7.000515461E-1
3.577327091E0,-1.621847153E-1,6.536257863E-1,-6.907358766E-1
3.579560916E0,-1.951714456E-1,6.044511795E-1,-6.850853562E-1
3.581790653E0,-2.304489166E-1,5.615378618E-1,-6.843217611E-1
3.584036502E0,-2.632829249E-1,5.221370459E-1,-6.811147332E-1
3.586273014E0,-2.938261926E-1,4.729624093E-1,-6.815729141E-1
3.588512027E0,-3.217732608E-1,4.334088862E-1,-6.820310354E-1
3.590743412E0,-3.547599912E-1,3.831652105E-1,-6.837109327E-1
3.592967350E0,-3.791945875E-1,3.313944042E-1,-6.827946305E-1
3.595216007E0,-4.013384581E-1,2.771801054E-1,-6.795876026E-1
3.597443790E0,-4.221078753E-1,2.254092693E-1,-6.702718735E-1
3.599696292E0,-4.381431043E-1,1.663080603E-1,-6.595817208E-1
3.601928653E0,-4.579962194E-1,1.047633886E-1,-6.427829266E-1
3.604164555E0,-4.668537676E-1,3.940080851E-2,-6.247624159E-1
3.606387760E0,-4.805982411E-1,-2.092213556E-2,-5.995642543E-1
3.608636295E0,-4.917465150E-1,-7.895433158E-2,-5.752823353E-1
3.610862613E0,-5.004513264E-1,-1.322523206E-1,-5.499314666E-1
3.613114505E0,-5.126686692E-1,-1.805106848E-1,-5.184718966E-1
3.615347477E0,-5.245805383E-1,-2.142609805E-1,-4.893030524E-1
3.617587162E0,-5.326744914E-1,-2.371684313E-1,-4.613559842E-1
3.619820987E0,-5.467243791E-1,-2.551889420E-1,-4.297437072E-1
3.622057254E0,-5.597052574E-1,-2.706133127E-1,-3.956879675E-1
3.624294132E0,-5.723807216E-1,-2.788599730E-1,-3.627012372E-1
3.626531620E0,-5.887213945E-1,-2.822197378E-1,-3.286454976E-1
3.628767948E0,-6.087272167E-1,-2.866485119E-1,-2.945897579E-1
3.631003299E0,-6.298020482E-1,-2.863430977E-1,-2.603813112E-1
3.633239628E0,-6.484334469E-1,-2.823724449E-1,-2.251038402E-1
3.635476200E0,-6.707300544E-1,-2.733621895E-1,-1.910481006E-1
3.637713016E0,-6.890559793E-1,-2.585487068E-1,-1.531744599E-1
3.639949405E0,-7.061602473E-1,-2.350303978E-1,-1.201877370E-1
3.642186405E0,-7.156286240E-1,-2.057088763E-1,-8.460483700E-2
3.644423465E0,-7.250970602E-1,-1.788308024E-1,-5.039638281E-2
3.646659976E0,-7.348709106E-1,-1.580613852E-1,-1.603521220E-2
3.648898929E0,-7.345654368E-1,-1.386664063E-1,1.450804994E-2
3.651131473E0,-7.295258045E-1,-1.229366288E-1,4.520402849E-2
3.653368534E0,-7.145596147E-1,-1.014036313E-1,7.605272532E-2
3.655604251E0,-6.899722815E-1,-9.224065393E-2,1.056796908E-1
3.657841739E0,-6.594290137E-1,-9.651670605E-2,1.328631938E-1
3.660078311E0,-6.232352853E-1,-1.262963861E-1,1.501201391E-1
3.662315799E0,-5.850561857E-1,-1.852448881E-1,1.551597714E-1
3.664551090E0,-5.558874011E-1,-2.672535479E-1,1.452332139E-1
3.666787479E0,-5.316054821E-1,-3.489567637E-1,1.206458881E-1
3.669023746E0,-5.073235631E-1,-4.416555762E-1,8.506298810E-2
3.671260624E0,-4.951062799E-1,-5.195409060E-1,3.955352306E-2
3.673497257E0,-4.871650338E-1,-5.731443167E-1,-1.191187184E-2
3.675734134E0,-4.836525619E-1,-5.974262357E-1,-6.459899992E-2
3.677971805E0,-4.807509482E-1,-5.939137340E-1,-1.123992056E-1
3.680207645E0,-4.775438905E-1,-5.720753074E-1,-1.574505121E-1
3.682443180E0,-4.679227769E-1,-5.358815193E-1,-1.951714456E-1
3.684679264E0,-4.570799172E-1,-4.948008358E-1,-2.280054539E-1
3.686916141E0,-4.436408877E-1,-4.514294267E-1,-2.521346211E-1
3.689152713E0,-4.263839424E-1,-3.946189582E-1,-2.689334154E-1
3.691389347E0,-4.105014503E-1,-3.451388776E-1,-2.796235681E-1
3.693625858E0,-3.897320330E-1,-2.958115041E-1,-2.878702581E-1
3.695862674E0,-3.701843321E-1,-2.440406680E-1,-2.910772860E-1
3.698100101E0,-3.494149148E-1,-1.898263693E-1,-2.871066630E-1
3.700336795E0,-3.359758854E-1,-1.317941695E-1,-2.805398703E-1
3.702571903E0,-3.226895630E-1,-7.513642311E-2,-2.716823220E-1
3.704808292E0,-3.165809214E-1,-1.695151068E-2,-2.542726696E-1
3.707044742E0,-3.118467033E-1,4.001167417E-2,-2.356412709E-1
3.709281620E0,-3.168863356E-1,1.020144969E-1,-2.194533348E-1
3.711518497E0,-3.229950070E-1,1.724167168E-1,-2.009746730E-1
3.713752322E0,-3.313944042E-1,2.564106882E-1,-1.750128865E-1
3.715973514E0,-3.436116874E-1,3.257438838E-1,-1.502728462E-1
3.718227665E0,-3.565925956E-1,3.623957932E-1,-1.270599663E-1
3.720463444E0,-3.723223805E-1,3.808744848E-1,-1.062905490E-1
3.722704898E0,-3.897320330E-1,3.788891733E-1,-8.689557761E-2
3.724936893E0,-4.050036669E-1,3.633120954E-1,-6.994406879E-2
3.727173771E0,-4.214970171E-1,3.430008292E-1,-5.543602258E-2
3.729410282E0,-4.440990388E-1,3.265074790E-1,-4.230241850E-2
3.731646976E0,-4.653266072E-1,3.147483170E-1,-3.268129006E-2
3.733884403E0,-4.923573732E-1,3.165809214E-1,-2.672535367E-2
3.736119754E0,-5.181664228E-1,3.231477141E-1,-2.214386500E-2
3.738356327E0,-5.438227654E-1,3.368921876E-1,-1.618792862E-2
3.740592350E0,-5.703954101E-1,3.593414724E-1,-8.857546374E-3
3.742826236E0,-5.910121202E-1,3.791945875E-1,-2.901609987E-3
3.745053836E0,-6.142250299E-1,3.892738819E-1,1.832595794E-3
3.747302433E0,-6.327036619E-1,3.885102868E-1,2.901609987E-3
3.749539249E0,-6.462954283E-1,3.827070892E-1,-5.803219974E-3
3.751779484E0,-6.537785530E-1,3.791945875E-1,-1.328631863E-2
3.754011844E0,-6.524040699E-1,3.827070892E-1,-2.672535367E-2
3.756248417E0,-6.458373070E-1,3.972151279E-1,-4.489859566E-2
3.758484745E0,-6.316346526E-1,4.224133193E-1,-6.673702598E-2
3.760721561E0,-6.096435189E-1,4.656320214E-1,-9.453139454E-2
3.762957950E0,-5.826127529E-1,5.100724697E-1,-1.246165112E-1
3.765194706E0,-5.496259928E-1,5.470298529E-1,-1.585195363E-1
3.767431278E0,-5.120577812E-1,5.656611919E-1,-1.936442852E-1
3.769668888E0,-4.758640230E-1,5.758932233E-1,-2.312124968E-1
3.771905094E0,-4.350887835E-1,5.690209866E-1,-2.687807083E-1
3.774138309E0,-3.995058835E-1,5.514585972E-1,-3.089450896E-1
3.776368046E0,-3.640756905E-1,5.227479339E-1,-3.478877544E-1
3.778611515E0,-3.336851299E-1,4.955644310E-1,-3.845396638E-1
3.780842655E0,-2.958115041E-1,4.705189466E-1,-4.172209501E-1
3.783088748E0,-2.652682364E-1,4.492913783E-1,-4.465425014E-1
3.785323429E0,-2.296853364E-1,4.315762818E-1,-4.731151462E-1
3.787562809E0,-1.977676302E-1,4.201225638E-1,-4.973970354E-1
3.789796268E0,-1.719585657E-1,4.135557711E-1,-5.167919993E-1
3.792032535E0,-1.472185254E-1,4.129449129E-1,-5.349652171E-1
3.794268680E0,-1.198823079E-1,4.210388660E-1,-5.480988622E-1
3.796505985E0,-9.865473956E-2,4.254676402E-1,-5.613851547E-1
3.798742313E0,-7.040221989E-2,4.224133193E-1,-5.722280145E-1
3.800978702E0,-3.894266114E-2,3.938553631E-1,-5.769622326E-1
3.803215396E0,1.069014193E-3,3.604104817E-1,-5.778785348E-1
3.805452762E0,3.985895589E-2,3.304781020E-1,-5.801692605E-1
3.807685428E0,7.987063378E-2,3.029891551E-1,-5.787948370E-1
3.809912967E0,1.186605766E-1,2.695443034E-1,-5.784893632E-1
3.812161014E0,1.560760736E-1,2.347249687E-1,-5.746715069E-1
3.814397831E0,1.936442852E-1,2.061670274E-1,-5.671883821E-1
3.816637394E0,2.313652188E-1,1.860084683E-1,-5.632177591E-1
3.818871036E0,2.629774809E-1,1.707368344E-1,-5.557346344E-1
3.821107791E0,2.971859276E-1,1.615738571E-1,-5.480988622E-1
3.823344852E0,3.309362531E-1,1.305724531E-1,-5.393940210E-1
3.825580448E0,3.706424832E-1,8.491026610E-2,-5.282457471E-1
3.827816959E0,4.062253833E-1,2.229658142E-2,-5.109887719E-1
3.830053165E0,4.378376603E-1,-4.505131021E-2,-4.902193546E-1
3.832290226E0,4.634940028E-1,-1.110247597E-1,-4.694499373E-1
3.834526798E0,4.828889668E-1,-1.745547503E-1,-4.450153410E-1
3.836763370E0,4.938845634E-1,-2.354885489E-1,-4.207334518E-1
3.838999942E0,5.001459122E-1,-2.852740586E-1,-4.074471295E-1
3.841237735E0,4.955644310E-1,-3.252857327E-1,-3.953825235E-1
3.843473941E0,4.862487316E-1,-3.614795208E-1,-3.930917978E-1
3.845708561E0,4.708243906E-1,-3.940080702E-1,-3.982841372E-1
3.847943119E0,4.517348409E-1,-4.300491214E-1,-4.108068645E-1
3.850181644E0,4.250094891E-1,-4.755585790E-1,-4.320344329E-1
3.852418583E0,3.958406746E-1,-5.259549618E-1,-4.583016634E-1
3.854655765E0,3.642283976E-1,-5.800165534E-1,-4.941899776E-1
3.856888431E0,3.315471113E-1,-6.265950203E-1,-5.302310586E-1
3.859114017E0,2.892446816E-1,-6.621779203E-1,-5.661193728E-1
3.861365177E0,2.432770878E-1,-6.916521788E-1,-5.948300362E-1
3.863601383E0,1.986839175E-1,-7.162395120E-1,-6.221662760E-1
3.865841434E0,1.565342247E-1,-7.373143435E-1,-6.470590234E-1
3.868074527E0,1.120937690E-1,-7.473936081E-1,-6.658431292E-1
3.870310917E0,7.269296050E-2,-7.550294399E-1,-6.785185933E-1
3.872547489E0,2.962696366E-2,-7.579310536E-1,-6.885978580E-1
3.874784000E0,-7.483099122E-3,-7.632761002E-1,-6.963863969E-1
3.877021305E0,-3.695734590E-2,-7.663304210E-1,-7.040221691E-1
3.879256717E0,-5.665775016E-2,-7.658722997E-1,-7.115052938E-1
3.881493595E0,-7.254024595E-2,-7.655668855E-1,-7.189884186E-1
3.883729862E0,-8.491026610E-2,-7.713701129E-1,-7.264714837E-1
3.885966556E0,-8.613199741E-2,-7.713701129E-1,-7.350236177E-1
3.888203312E0,-8.857546002E-2,-7.725918293E-1,-7.423539758E-1
3.890439823E0,-7.360926270E-2,-7.692320347E-1,-7.483099103E-1
3.892676456E0,-5.497787148E-2,-7.658722997E-1,-7.579310536E-1
3.894913639E0,-3.527746722E-2,-7.614435554E-1,-7.651087046E-1
3.897148990E0,-1.160643995E-2,-7.545713186E-1,-7.660250068E-1
3.899385624E0,1.435533352E-2,-7.490735054E-1,-7.646505833E-1
3.901621952E0,4.153883830E-2,-7.435756922E-1,-7.655668855E-1
3.903858829E0,6.872233748E-2,-7.379252315E-1,-7.666358948E-1
3.906093265E0,9.850201756E-2,-7.276932001E-1,-7.638869882E-1
3.908323368E0,1.258382350E-1,-7.136433125E-1,-7.586946487E-1
3.910565738E0,1.542434692E-1,-7.008151412E-1,-7.559457421E-1
3.912794986E0,1.838704348E-1,-7.002043128E-1,-7.495316267E-1
3.915044254E0,2.121229619E-1,-7.043276429E-1,-7.467827797E-1
3.917277958E0,2.415972054E-1,-7.061602473E-1,-7.490735054E-1
3.919516788E0,2.696970105E-1,-7.151705027E-1,-7.538077235E-1
3.921749149E0,3.029891551E-1,-7.206682563E-1,-7.644978762E-1
3.923981266E0,3.400992155E-1,-7.105889916E-1,-7.764097452E-1
3.926223819E0,3.825543523E-1,-6.919575930E-1,-7.906123400E-1
3.928459110E0,4.349360466E-1,-6.601926088E-1,-8.046622276E-1
3.930692508E0,4.972442985E-1,-6.226243973E-1,-8.113817573E-1
3.932933292E0,5.609270334E-1,-5.850561857E-1,-8.156577945E-1
3.935170047E0,6.206390858E-1,-5.522221923E-1,-8.087855577E-1
3.937408085E0,6.811147332E-1,-5.363397002E-1,-7.874053121E-1
3.939642276E0,7.365507483E-1,-5.241223574E-1,-7.625125647E-1
3.941876529E0,7.822129726E-1,-5.128213763E-1,-7.313584089E-1
3.944112369E0,8.301658630E-1,-5.053382516E-1,-7.003570199E-1
3.946339054E0,8.691084981E-1,-5.134322643E-1,-6.597344875E-1
3.948590945E0,8.894197941E-1,-5.841398835E-1,-6.084218025E-1
3.950825626E0,9.030115604E-1,-6.863071322E-1,-5.598580241E-1
3.953065616E0,9.175195694E-1,-8.080220222E-1,-5.160284042E-1
3.955298466E0,9.358455539E-1,-9.297369123E-1,-4.955644310E-1
3.957532352E0,9.584475756E-1,-8.622363210E-1,-5.441282392E-1
3.959759891E0,9.934195876E-1,-7.415903807E-1,-6.093381047E-1
3.962008121E0,1.049313784E0,-6.783658266E-1,-6.722571850E-1
3.964245242E0,1.133918643E0,-6.520986557E-1,-7.339546084E-1
3.966487247E0,1.236544013E0,-6.455318332E-1,-7.855727077E-1
3.968717960E0,1.345278025E0,-6.415612102E-1,-8.188648820E-1
3.970954532E0,1.460884213E0,-6.475171447E-1,-8.179485798E-1
3.973190067E0,1.562593341E0,-6.603453159E-1,-7.925976515E-1
3.975427433E0,1.640631318E0,-6.777549982E-1,-7.431175709E-1
3.977664127E0,1.685377240E0,-6.992880106E-1,-6.754642725E-1
3.979900272E0,1.689347863E0,-7.174612284E-1,-6.046038866E-1
3.982137149E0,1.651779652E0,-7.301366925E-1,-5.364924073E-1
3.984374820E0,1.578323126E0,-7.469354868E-1,-4.673119187E-1
3.986611026E0,1.493412852E0,-7.828238010E-1,-4.083634019E-1
3.988846622E0,1.412014961E0,-8.371908069E-1,-3.639229834E-1
3.991082828E0,1.341460109E0,-9.060658813E-1,-3.255911767E-1
3.993319217E0,1.291674614E0,-9.853256345E-1,-3.006984293E-1
3.995555973E0,1.262963891E0,-1.060003877E0,-2.864958048E-1
3.997792301E0,1.250441194E0,-1.128878951E0,-2.796235681E-1
4.000029239E0,1.244332552E0,-1.179733515E0,-2.774855494E-1
4.002266727E0,1.243874311E0,-1.208902359E0,-2.799290121E-1
4.004499271E0,1.259756804E0,-1.222494125E0,-3.104722500E-1
4.006724246E0,1.288772941E0,-1.223104954E0,-4.155410826E-1
4.008960086E0,1.325119376E0,-1.235933065E0,-5.497786999E-1
4.011200199E0,1.363603950E0,-1.252426505E0,-6.438519955E-1
4.013451481E0,1.403462887E0,-1.253190041E0,-7.058547735E-1
4.015687748E0,1.434769750E0,-1.245248795E0,-7.521278262E-1
4.017924747E0,1.463480353E0,-1.234864116E0,-7.958046794E-1
4.020159000E0,1.495856285E0,-1.231809735E0,-8.274169564E-1
4.022394413E0,1.523039818E0,-1.231198907E0,-8.539896011E-1
4.024627689E0,1.550375938E0,-1.226922870E0,-8.721628785E-1
4.026855045E0,1.582751870E0,-1.210582256E0,-8.816312551E-1
4.029103885E0,1.611462474E0,-1.196532249E0,-8.935431242E-1
4.031340458E0,1.647503614E0,-1.186300278E0,-9.140071273E-1
4.033579777E0,1.684919119E0,-1.172403097E0,-9.393580556E-1
4.035813724E0,1.718516707E0,-1.164614558E0,-9.671524167E-1
4.038051395E0,1.755932093E0,-1.155604362E0,-9.973902106E-1
4.040286563E0,1.786933541E0,-1.150106549E0,-1.027628064E0
4.042523075E0,1.815644264E0,-1.144608736E0,-1.062905550E0
4.044759037E0,1.845423937E0,-1.142776132E0,-1.099251986E0
4.046995975E0,1.876578093E0,-1.137278318E0,-1.134529471E0
4.049232547E0,1.921782017E0,-1.163698316E0,-1.147663116E0
4.051469242E0,1.967597008E0,-1.207069755E0,-1.152397275E0
4.053706241E0,2.008830309E0,-1.252731919E0,-1.180344343E0
4.055943546E0,2.045176744E0,-1.295950651E0,-1.223104954E0
4.058179813E0,2.079232693E0,-1.334282398E0,-1.274264932E0
4.060414493E0,2.112066507E0,-1.371239781E0,-1.331686258E0
4.062646121E0,2.142457247E0,-1.410640597E0,-1.392772794E0
4.064876346E0,2.169182539E0,-1.447597861E0,-1.457524419E0
4.067124942E0,2.189799070E0,-1.494176388E0,-1.532202721E0
4.069362064E0,2.208888769E0,-1.543045640E0,-1.608102798E0
4.071601017E0,2.228436470E0,-1.582293749E0,-1.682780981E0
4.073835514E0,2.241722822E0,-1.612836957E0,-1.749976158E0
4.076070621E0,2.248136759E0,-1.621389031E0,-1.805106759E0
4.078307254E0,2.254703522E0,-1.619098306E0,-1.855197787E0
4.080543522E0,2.249053001E0,-1.603215814E0,-1.888184428E0
4.082780399E0,2.237599373E0,-1.566563964E0,-1.910175562E0
4.085016788E0,2.210721254E0,-1.503033876E0,-1.913840771E0
4.087253543E0,2.172847748E0,-1.420872569E0,-1.904066920E0
4.089489139E0,2.124283791E0,-1.316872716E0,-1.878410578E0
4.091720645E0,2.051285505E0,-1.195310593E0,-1.828319669E0
4.093948367E0,1.966222525E0,-1.051604509E0,-1.747685432E0
4.096185062E0,1.876425266E0,-8.969029188E-1,-1.652390480E0
4.098425479E0,1.768149495E0,-7.406741381E-1,-1.549917817E0
4.100675663E0,1.658346415E0,-5.893322229E-1,-1.435227871E0
4.102911929E0,1.543351054E0,-4.535674453E-1,-1.314429283E0
4.105148258E0,1.425454021E0,-3.349068761E-1,-1.191339970E0
4.107382450E0,1.302212000E0,-2.414444834E-1,-1.072221279E0
4.109619754E0,1.189507365E0,-1.701259762E-1,-9.553932548E-1
4.111855106E0,1.078788042E0,-1.290452778E-1,-8.497135639E-1
4.114091373E0,9.812023044E-1,-1.139263660E-1,-7.538077235E-1
4.116327823E0,8.941540122E-1,-1.291979998E-1,-6.713408828E-1
4.118565067E0,8.177958727E-1,-1.652390510E-1,-6.012440920E-1
4.120801212E0,7.559457421E-1,-2.199114859E-1,-5.419901609E-1
4.123037723E0,7.061602473E-1,-2.941316068E-1,-4.973970354E-1
4.125274234E0,6.672175527E-1,-3.856086731E-1,-4.615086913E-1
4.127509952E0,6.391177773E-1,-4.810563922E-1,-4.338670373E-1
4.129739566E0,6.185010672E-1,-5.836817622E-1,-4.100432992E-1
4.131983585E0,6.049093008E-1,-6.976081133E-1,-3.886630237E-1
4.134217105E0,5.975789428E-1,-8.115344644E-1,-3.744603992E-1
4.136446842E0,5.963571668E-1,-9.268352985E-1,-3.651446998E-1
4.138693363E0,5.965099335E-1,-1.038470864E0,-3.558290005E-1
4.140930057E0,5.991060734E-1,-1.147663116E0,-3.451388776E-1
4.143169620E0,6.018549800E-1,-1.254564524E0,-3.382666409E-1
4.145403995E0,6.047565937E-1,-1.351692080E0,-3.312416673E-1
4.147639591E0,6.018549800E-1,-1.436602354E0,-3.243694305E-1
4.149876346E0,5.939137340E-1,-1.517694712E0,-3.173444867E-1
4.152112186E0,5.849034786E-1,-1.594052911E0,-3.104722500E-1
4.154349063E0,5.761986375E-1,-1.658193707E0,-3.083342314E-1
4.156586857E0,5.639813542E-1,-1.712560773E0,-3.061962128E-1
4.158826542E0,5.471825600E-1,-1.755932093E0,-3.089450896E-1
4.161058780E0,5.329799056E-1,-1.789529681E0,-3.068070710E-1
4.163296207E0,5.189300179E-1,-1.815949678E0,-3.106249869E-1
4.165530521E0,5.112941861E-1,-1.826792479E0,-3.144428730E-1
4.167768253E0,5.012149215E-1,-1.837482691E0,-3.182607889E-1
4.170004459E0,4.952589869E-1,-1.832595706E0,-3.219259977E-1
4.172241153E0,4.917465150E-1,-1.824043632E0,-3.255911767E-1
4.174477909E0,4.870123267E-1,-1.814117074E0,-3.304781020E-1
4.176714176E0,4.836525619E-1,-1.800678015E0,-3.341432810E-1
4.178950870E0,4.802927971E-1,-1.784948230E0,-3.414736688E-1
4.181188358E0,4.783074856E-1,-1.762957096E0,-3.474296033E-1
4.183423954E0,4.749477208E-1,-1.749670744E0,-3.559817076E-1
4.185660343E0,4.692972302E-1,-1.728901386E0,-3.657555580E-1
4.187896610E0,4.674646258E-1,-1.708131909E0,-3.828597963E-1
4.190133426E0,4.663956165E-1,-1.704466701E0,-3.999640048E-1
4.192369999E0,4.616613984E-1,-1.700801611E0,-4.208861589E-1
4.194606266E0,4.608978331E-1,-1.688584208E0,-4.439463317E-1
4.196842899E0,4.572326243E-1,-1.691027761E0,-4.746423066E-1
4.199080753E0,4.610505402E-1,-1.697136402E0,-5.112941861E-1
4.201317325E0,4.554000497E-1,-1.686140776E0,-5.419901609E-1
4.203552677E0,4.572326243E-1,-1.667967558E0,-5.723807216E-1
4.205788639E0,4.641048610E-1,-1.641394973E0,-5.980370641E-1
4.208024967E0,4.674646258E-1,-1.602604985E0,-6.198754907E-1
4.210262088E0,4.721988440E-1,-1.558928132E0,-6.391177773E-1
4.212498722E0,4.757113159E-1,-1.510517001E0,-6.597344875E-1
4.214735660E0,4.844161272E-1,-1.455997348E0,-6.777549982E-1
4.216973026E0,4.905247986E-1,-1.401630282E0,-6.934847832E-1
4.219208133E0,4.967861474E-1,-1.343445420E0,-7.078400850E-1
4.221444706E0,5.028948188E-1,-1.288925648E0,-7.221954465E-1
4.223680912E0,5.079344511E-1,-1.231962442E0,-7.440338731E-1
4.225919620E0,4.961752892E-1,-1.156520605E0,-7.805330753E-1
4.228162235E0,4.581489265E-1,-1.039234519E0,-8.280278444E-1
4.230390751E0,3.863722682E-1,-8.909469843E-1,-8.746063113E-1
4.232627628E0,2.988658249E-1,-7.254024744E-1,-9.114109278E-1
4.234862919E0,2.223549485E-1,-5.674937963E-1,-9.370672703E-1
4.237100528E0,1.687515229E-1,-4.207334518E-1,-9.576839805E-1
4.239337040E0,1.430951804E-1,-2.976440787E-1,-9.819658995E-1
4.241573185E0,1.246165112E-1,-2.463314086E-1,-9.990701079E-1
4.243810123E0,1.250746548E-1,-2.257147133E-1,-1.003804326E0
4.246046268E0,1.513418704E-1,-1.983784884E-1,-9.973902106E-1
4.248283085E0,1.895209402E-1,-1.979203373E-1,-9.946413636E-1
4.250519596E0,2.189951837E-1,-2.638937831E-1,-9.983065128E-1
4.252757022E0,2.541199327E-1,-3.495676219E-1,-9.909761548E-1
4.254992557E0,2.991712391E-1,-4.353941977E-1,-9.787588120E-1
4.257229129E0,3.384193480E-1,-4.992296100E-1,-9.627236128E-1
4.259465275E0,3.776674271E-1,-5.607742667E-1,-9.430232048E-1
4.261702274E0,4.156937897E-1,-6.160575747E-1,-9.210320711E-1
4.263938541E0,4.390594065E-1,-6.675229669E-1,-8.952230215E-1
4.266174991E0,4.590652287E-1,-7.104362845E-1,-8.707883954E-1
4.268411991E0,4.715879560E-1,-7.483099103E-1,-8.426886201E-1
4.270649600E0,4.854851663E-1,-7.861835957E-1,-8.194757104E-1
4.272885929E0,4.868595898E-1,-8.274169564E-1,-7.890852094E-1
4.275121219E0,4.918992519E-1,-8.724682927E-1,-7.597636580E-1
4.277357487E0,4.966334403E-1,-9.295842052E-1,-7.208209634E-1
4.279593815E0,5.169447064E-1,-1.001666307E0,-6.756169796E-1
4.281830692E0,5.383250117E-1,-1.084591269E0,-6.269004345E-1
4.284067264E0,5.598580241E-1,-1.163851023E0,-5.768095255E-1
4.286304202E0,5.775730610E-1,-1.246775985E0,-5.329799056E-1
4.288541690E0,5.904012322E-1,-1.329548240E0,-4.915938079E-1
4.290776310E0,5.986479521E-1,-1.390329242E0,-4.453207552E-1
4.293010624E0,6.047565937E-1,-1.437824130E0,-3.940080702E-1
4.295249576E0,6.143777370E-1,-1.487762332E0,-3.329215646E-1
4.297486454E0,6.285803318E-1,-1.551139593E0,-2.695443034E-1
4.299723758E0,6.476698518E-1,-1.620778203E0,-2.023491114E-1
4.301959598E0,6.690501571E-1,-1.693929315E0,-1.339322031E-1
4.304194156E0,6.930266023E-1,-1.770898342E0,-6.918048859E-2
4.306425479E0,7.192938328E-1,-1.850310802E0,-9.315694682E-3
4.308669315E0,7.469354868E-1,-1.924836397E0,4.321871698E-2
4.310905643E0,7.724391222E-1,-1.989740849E0,8.979719132E-2
4.313143741E0,7.956519723E-1,-2.042428017E0,1.276708394E-1
4.315378482E0,8.216137290E-1,-2.092671633E0,1.545489132E-1
4.317615116E0,8.478809595E-1,-2.123520374E0,1.754710376E-1
4.319851749E0,8.707883954E-1,-2.142151594E0,1.890627891E-1
4.322088565E0,8.976664543E-1,-2.152383804E0,1.977676302E-1
4.324325809E0,9.208793640E-1,-2.152841806E0,2.005165219E-1
4.326558170E0,9.457721114E-1,-2.144747972E0,1.945605874E-1
4.328784122E0,9.708175659E-1,-2.128254414E0,1.863138974E-1
4.331027469E0,9.925032854E-1,-2.098322153E0,1.719585657E-1
4.333270877E0,1.016632438E0,-2.066098928E0,1.466076523E-1
4.335510258E0,1.042288780E0,-2.031432390E0,1.127046347E-1
4.337745670E0,1.064432740E0,-1.978439808E0,7.880161703E-2
4.339980594E0,1.085507512E0,-1.926669002E0,3.512475267E-2
4.342218204E0,1.106582403E0,-1.878563404E0,-1.466076635E-2
4.344454471E0,1.129948020E0,-1.835344672E0,-6.811147183E-2
4.346690128E0,1.150717378E0,-1.798081875E0,-1.253800988E-1
4.348926395E0,1.170570493E0,-1.751045227E0,-1.751656085E-1
4.351162723E0,1.182940602E0,-1.702786922E0,-2.200642079E-1
4.353399540E0,1.190423608E0,-1.650710583E0,-2.541199327E-1
4.355637150E0,1.189354658E0,-1.588860512E0,-2.782491148E-1
4.357874699E0,1.187063932E0,-1.519680023E0,-2.927571833E-1
4.360100528E0,1.180038929E0,-1.450346828E0,-2.987131178E-1
4.362345768E0,1.161560297E0,-1.394147158E0,-3.119994104E-1
4.364580875E0,1.138041973E0,-1.342681766E0,-3.364340365E-1
4.366820926E0,1.117119789E0,-1.286482215E0,-3.523165286E-1
4.369055240E0,1.087340117E0,-1.248303175E0,-3.744603992E-1
4.371291690E0,1.052215338E0,-1.234253287E0,-4.138612151E-1
4.373528202E0,1.018465042E0,-1.214094639E0,-4.618141353E-1
4.375764286E0,9.812023044E-1,-1.184314966E0,-5.061018467E-1
4.377999393E0,9.314168096E-1,-1.163851023E0,-5.503895879E-1
4.380237674E0,8.830057383E-1,-1.139874578E0,-5.899431109E-1
4.382474247E0,8.295549750E-1,-1.114523649E0,-6.343835592E-1
4.384711307E0,7.713701129E-1,-1.085507512E0,-6.763805151E-1
4.386947452E0,7.147123218E-1,-1.043052435E0,-7.182248235E-1
4.389183963E0,6.545420885E-1,-9.909761548E-1,-7.612907887E-1
4.391420353E0,5.945246220E-1,-9.266825914E-1,-8.045095205E-1
4.393654666E0,5.299255848E-1,-8.489499688E-1,-8.487972617E-1
4.395883609E0,4.679227769E-1,-7.675521970E-1,-8.965974450E-1
4.398129825E0,4.072943926E-1,-6.754642725E-1,-9.408851862E-1
4.400366520E0,3.443752825E-1,-5.734497309E-1,-9.923505783E-1
4.402605350E0,2.840523422E-1,-4.703662395E-1,-1.041372538E0
4.404839542E0,2.237294018E-1,-3.707951903E-1,-1.094212413E0
4.407075992E0,1.704314053E-1,-2.787072659E-1,-1.146899462E0
4.409312442E0,1.169806942E-1,-2.049452960E-1,-1.195921421E0
4.411549503E0,7.070764899E-2,-1.336267740E-1,-1.235169530E0
4.413787113E0,2.855795063E-2,-9.025534242E-2,-1.263574719E0
4.416023624E0,-6.566801574E-3,-7.147123665E-2,-1.277166486E0
4.418258670E0,-2.993239649E-2,-6.979135424E-2,-1.274875760E0
4.420494999E0,-3.680463135E-2,-9.758572280E-2,-1.251815557E0
4.422729251E0,-2.611448988E-2,-1.620320082E-1,-1.205542564E0
4.424959354E0,1.679879427E-2,-2.648100853E-1,-1.133460522E0
4.427204715E0,7.513642311E-2,-3.933972120E-1,-1.039234519E0
4.429441593E0,1.476766765E-1,-5.367978215E-1,-9.289733171E-1
4.431681339E0,2.386955917E-1,-6.855435371E-1,-8.064948320E-1
4.433914493E0,3.455969989E-1,-8.295549750E-1,-6.666067243E-1
