"Time (s)","Gyroscope x (rad/s)","Gyroscope y (rad/s)","Gyroscope z (rad/s)"
2.174132400E-2,-1.281289905E-1,9.712757170E-2,-5.406157300E-2
2.397323800E-2,-1.417207420E-1,9.376781434E-2,-4.688390717E-2
2.620950500E-2,-1.518000066E-1,8.170322329E-2,-4.214970022E-2
2.844510100E-2,-1.606575549E-1,7.345654815E-2,-3.481931984E-2
3.068234400E-2,-1.707368344E-1,6.643159688E-2,-3.130684420E-2
3.291909900E-2,-1.771509200E-1,5.436700583E-2,-2.535090782E-2
3.516781700E-2,-1.835650057E-1,4.352414981E-2,-1.924225502E-2
3.740445000E-2,-1.910481006E-1,3.649919853E-2,-1.817324013E-2
3.964175600E-2,-1.974621862E-1,3.176499158E-2,-1.084285788E-2
4.187564200E-2,-1.976149082E-1,2.199114859E-2,-7.177666761E-3
4.411325200E-2,-2.002110779E-1,1.603521220E-2,-2.443460980E-3
4.634903100E-2,-2.089159191E-1,1.496619824E-2,3.665191587E-3
4.858566400E-2,-2.090686262E-1,7.635815535E-3,7.330383174E-3
5.082193200E-2,-2.067778856E-1,3.054326226E-4,1.588249579E-2
5.305807600E-2,-2.069306076E-1,-9.162978968E-4,1.832595654E-2
5.529617400E-2,-2.069306076E-1,-9.162978968E-4,2.443460934E-2
5.753293000E-2,-2.044871449E-1,1.527163084E-3,2.809980139E-2
5.977005100E-2,-2.031126916E-1,7.483099122E-3,2.932153270E-2
6.200729500E-2,-1.994474977E-1,8.704829961E-3,3.436116874E-2
6.424307400E-2,-1.931861341E-1,1.343903504E-2,3.924809024E-2
6.647970700E-2,-1.882992089E-1,1.450804994E-2,4.428773001E-2
6.871731700E-2,-1.834122837E-1,1.557706390E-2,4.795292020E-2
7.095742900E-2,-1.734857261E-1,1.664607786E-2,5.283984542E-2
7.318985100E-2,-1.649336219E-1,1.404990070E-2,5.665775016E-2
7.542642300E-2,-1.576032341E-1,1.267545391E-2,6.154467165E-2
7.766244700E-2,-1.528690308E-1,7.788531948E-3,6.414084882E-2
7.990109400E-2,-1.443169117E-1,3.970623948E-3,6.902777404E-2
8.213693400E-2,-1.394299865E-1,1.374446787E-3,7.269296050E-2
8.437350600E-2,-1.345430762E-1,2.596177394E-3,7.651086897E-2
8.660904000E-2,-1.308778822E-1,2.443460980E-3,7.895433158E-2
8.884292700E-2,-1.285871267E-1,-1.221730490E-3,8.017606288E-2
9.108371100E-2,-1.247692257E-1,1.069014193E-3,8.384125680E-2
9.332052700E-2,-1.250746548E-1,-8.552113548E-3,8.506298810E-2
9.555862600E-2,-1.200350225E-1,-7.483099122E-3,8.261952549E-2
9.779513700E-2,-1.214094684E-1,-1.099557430E-2,8.506298810E-2
1.000307330E-1,-1.201877370E-1,-1.114829071E-2,8.506298810E-2
1.022675490E-1,-1.201877370E-1,-1.114829071E-2,8.506298810E-2
1.045040600E-1,-1.250746548E-1,-1.343903504E-2,8.139779419E-2
1.067409380E-1,-1.264491081E-1,-1.710422710E-2,8.261952549E-2
1.089772660E-1,-1.252273768E-1,-1.832595654E-2,8.261952549E-2
1.112125560E-1,-1.278235465E-1,-2.428189293E-2,8.124507964E-2
1.134514480E-1,-1.302670091E-1,-2.428189293E-2,8.002334833E-2
1.156863110E-1,-1.327104717E-1,-2.535090782E-2,7.757988572E-2
1.179137280E-1,-1.351539344E-1,-2.535090782E-2,7.757988572E-2
1.201614090E-1,-1.400408596E-1,-2.290744707E-2,7.757988572E-2
1.223980420E-1,-1.437060535E-1,-2.153299935E-2,7.376197726E-2
1.246375440E-1,-1.435533315E-1,-1.664607786E-2,7.391469181E-2
1.268716140E-1,-1.459967941E-1,-1.420261711E-2,7.131851465E-2
1.291085520E-1,-1.484402567E-1,-1.175915636E-2,7.009678334E-2
1.313454910E-1,-1.495092660E-1,-6.872233935E-3,7.254024595E-2
1.335829790E-1,-1.458440721E-1,-8.093964309E-3,7.269296050E-2
1.358184520E-1,-1.495092660E-1,-5.650503561E-3,7.254024595E-2
1.380550860E-1,-1.507309973E-1,-5.650503561E-3,7.376197726E-2
1.402919630E-1,-1.531744599E-1,-3.207042580E-3,7.376197726E-2
1.425300610E-1,-1.505782902E-1,-7.635815418E-4,7.635815442E-2
1.447658400E-1,-1.493565589E-1,3.970623948E-3,7.635815442E-2
1.470022290E-1,-1.469130963E-1,3.970623948E-3,7.513642311E-2
1.492391680E-1,-1.430951804E-1,3.970623948E-3,7.513642311E-2
1.514766550E-1,-1.418734491E-1,5.039638374E-3,7.391469181E-2
1.537098710E-1,-1.418734491E-1,3.970623948E-3,7.391469181E-2
1.559390580E-1,-1.395827085E-1,-1.069014193E-3,7.147123665E-2
1.581855180E-1,-1.359175146E-1,-4.734205548E-3,7.147123665E-2
1.604184890E-1,-1.334740520E-1,-3.512475174E-3,6.902777404E-2
1.626445630E-1,-1.322523206E-1,-8.399397135E-3,6.414084882E-2
1.648962110E-1,-1.261436790E-1,-1.343903504E-2,6.047565863E-2
1.671330270E-1,-1.188132912E-1,-1.725694351E-2,5.818491429E-2
1.693752140E-1,-1.114829108E-1,-2.214386500E-2,5.329799280E-2
1.716066600E-1,-1.004873365E-1,-2.489275858E-2,5.207626149E-2
1.738432330E-1,-9.315694869E-2,-2.977968007E-2,4.734205827E-2
1.760795000E-1,-8.078692853E-2,-3.008511290E-2,4.489859566E-2
1.783165600E-1,-7.086037099E-2,-2.412917651E-2,4.260785133E-2
1.805533770E-1,-5.849034712E-2,-2.443460934E-2,4.276056588E-2
1.827900100E-1,-4.734205827E-2,-1.863138936E-2,4.031710699E-2
1.850270700E-1,-3.604105115E-2,-1.023199316E-2,3.924809024E-2
1.872646190E-1,-2.489275858E-2,-5.650503561E-3,3.817907721E-2
1.895004590E-1,-1.130100712E-2,1.374446787E-3,4.077525437E-2
1.917370310E-1,2.443460980E-3,8.399397135E-3,4.214970022E-2
1.939735430E-1,1.603521220E-2,9.315694682E-3,4.474587739E-2
1.962103590E-1,2.596177347E-2,1.282817032E-2,4.352414981E-2
1.984472360E-1,3.573561832E-2,1.252273750E-2,4.612032697E-2
2.006839920E-1,4.321871698E-2,1.481348183E-2,4.489859566E-2
2.029208690E-1,5.421429127E-2,1.343903504E-2,4.749477282E-2
2.051584790E-1,6.398813426E-2,9.621127509E-3,4.627304152E-2
2.073945020E-1,6.643159688E-2,7.177666761E-3,4.520402849E-2
2.096310740E-1,7.360926270E-2,9.162978968E-4,4.398229718E-2
2.118676470E-1,7.605272532E-2,-2.748893574E-3,4.520402849E-2
2.141053790E-1,7.467827946E-2,-1.007927675E-2,4.276056588E-2
2.163412180E-1,7.467827946E-2,-1.496619824E-2,4.016438872E-2
2.185778520E-1,7.452555746E-2,-2.336559631E-2,3.772092983E-2
2.208146070E-1,7.315111160E-2,-3.069597855E-2,3.527746722E-2
2.230521560E-1,6.795875728E-2,-3.909537569E-2,3.268129006E-2
2.252880570E-1,6.169738993E-2,-4.734205827E-2,3.145955876E-2
2.275248730E-1,5.543602258E-2,-5.329799280E-2,2.764165215E-2
2.297614460E-1,5.039638281E-2,-5.803219974E-2,2.519819140E-2
2.319982620E-1,4.184427112E-2,-6.032294407E-2,2.504547499E-2
2.342350780E-1,2.687807009E-2,-6.490442902E-2,2.367102914E-2
2.364689040E-1,1.343903504E-2,-6.704246253E-2,1.985312067E-2
2.386969920E-1,2.443460980E-3,-6.200282276E-2,1.740965992E-2
2.409461990E-1,-1.114829071E-2,-6.047565863E-2,1.359175146E-2
2.431817950E-1,-2.580905706E-2,-5.787948146E-2,1.343903504E-2
2.454216020E-1,-4.169155285E-2,-5.390885845E-2,1.343903504E-2
2.476552440E-1,-5.635231733E-2,-4.749477282E-2,1.206458826E-2
2.498922440E-1,-7.101308554E-2,-4.123340547E-2,9.468411095E-3
2.521286330E-1,-8.811730891E-2,-3.955352306E-2,8.093964309E-3
2.543656930E-1,-1.052215397E-1,-2.718350291E-2,6.872233935E-3
2.566027540E-1,-1.209513173E-1,-1.954768784E-2,7.941247895E-3
2.588403030E-1,-1.343903542E-1,-9.621127509E-3,1.160643995E-2
2.610756540E-1,-1.527163088E-1,-3.207042580E-3,1.145372353E-2
2.633127760E-1,-1.661553532E-1,-4.581489484E-4,1.252273750E-2
2.655453810E-1,-1.858557463E-1,1.069014193E-3,1.725694351E-2
2.677697460E-1,-2.018909603E-1,3.817907767E-3,2.076941915E-2
2.700226150E-1,-2.154827118E-1,-3.207042580E-3,1.939497143E-2
2.722593700E-1,-2.267837226E-1,-6.566801574E-3,2.183843218E-2
2.745006430E-1,-2.440406680E-1,-1.114829071E-2,2.412917651E-2
2.767341630E-1,-2.564106882E-1,-1.328631863E-2,2.397646010E-2
2.789699420E-1,-2.689334154E-1,-2.031126991E-2,2.260201424E-2
2.812064530E-1,-2.764165103E-1,-2.748893574E-2,2.244929783E-2
2.834430860E-1,-2.900082767E-1,-2.962696366E-2,2.351831272E-2
2.856810620E-1,-3.013092875E-1,-4.031710699E-2,1.985312067E-2
2.879167800E-1,-3.039054573E-1,-4.993823543E-2,1.725694351E-2
2.901538400E-1,-3.113885522E-1,-5.711590126E-2,1.710422710E-2
2.923903520E-1,-3.153591752E-1,-6.795875728E-2,1.466076635E-2
2.946281450E-1,-3.191770911E-1,-7.513642311E-2,1.221730467E-2
2.968636790E-1,-3.205515444E-1,-8.246681094E-2,8.399397135E-3
2.991005570E-1,-3.193297982E-1,-8.842274547E-2,3.512475174E-3
3.013371290E-1,-3.193297982E-1,-8.964447677E-2,3.512475174E-3
3.035741290E-1,-3.144428730E-1,-9.224065393E-2,-1.527163113E-4
3.058104570E-1,-3.109304011E-1,-9.712757170E-2,-3.817907767E-3
3.080472730E-1,-3.071125150E-1,-9.605856240E-2,-5.039638374E-3
3.102843340E-1,-2.961169183E-1,-9.865473956E-2,-7.330383174E-3
3.125219430E-1,-2.861903608E-1,-9.758572280E-2,-8.399397135E-3
3.147576000E-1,-2.725986242E-1,-9.789115191E-2,-1.084285788E-2
3.169946000E-1,-2.616030276E-1,-9.804387391E-2,-1.313360315E-2
3.192271440E-1,-2.481640130E-1,-1.007927656E-1,-1.298088674E-2
3.214528520E-1,-2.331978083E-1,-9.743300825E-2,-1.053742506E-2
3.237045000E-1,-2.197587788E-1,-1.014036313E-1,-1.160643995E-2
3.259413160E-1,-2.075414658E-1,-1.027780771E-1,-1.267545391E-2
3.281819770E-1,-1.915062517E-1,-1.030835137E-1,-1.130100712E-2
3.304159860E-1,-1.731802970E-1,-1.059851199E-1,-1.114829071E-2
3.326515210E-1,-1.608102769E-1,-1.073595658E-1,-1.359175146E-2
3.348882150E-1,-1.484402567E-1,-1.076650023E-1,-1.466076635E-2
3.371249100E-1,-1.362229437E-1,-1.114829108E-1,-1.588249579E-2
3.393617260E-1,-1.275181174E-1,-1.091921628E-1,-1.572977938E-2
3.415984200E-1,-1.163698286E-1,-1.058324054E-1,-1.679879427E-2
3.438353590E-1,-1.065959856E-1,-1.035416573E-1,-1.557706390E-2
3.460722360E-1,-9.300423414E-2,-1.050688252E-1,-1.420261711E-2
3.483097850E-1,-8.796459436E-2,-1.003346145E-1,-1.420261711E-2
3.505453200E-1,-7.681630552E-2,-9.330966324E-2,-1.160643995E-2
3.527821360E-1,-6.918048859E-2,-8.002334833E-2,-9.010262787E-3
3.550187700E-1,-6.169738993E-2,-7.406741381E-2,-6.414085161E-3
3.572568070E-1,-5.283984542E-2,-6.582073122E-2,-6.414085161E-3
3.594924020E-1,-4.780020565E-2,-5.619960278E-2,-5.039638374E-3
3.617292190E-1,-3.894266114E-2,-4.657847434E-2,-2.443460980E-3
3.639657910E-1,-3.390302137E-2,-3.817907721E-2,-2.443460980E-3
3.662038280E-1,-2.886338346E-2,-3.100141138E-2,1.527163113E-4
3.684393630E-1,-2.504547499E-2,-2.626720630E-2,1.527163113E-4
3.706760570E-1,-2.000583708E-2,-2.031126991E-2,3.054326226E-4
3.729127520E-1,-1.374446787E-2,-1.313360315E-2,-2.138028387E-3
3.751496290E-1,-7.330383174E-3,-5.955935922E-3,-4.428773187E-3
3.773864450E-1,-4.886921961E-3,-1.221730490E-3,-5.650503561E-3
3.796229570E-1,-9.162978968E-4,5.955935922E-3,-5.650503561E-3
3.818600780E-1,2.748893574E-3,8.399397135E-3,-4.276056774E-3
3.840975660E-1,1.679879380E-3,1.328631863E-2,-4.276056774E-3
3.863289500E-1,4.276056774E-3,2.168571576E-2,-3.054326167E-3
3.885528880E-1,6.719517522E-3,2.519819140E-2,-3.054326167E-3
3.908063060E-1,8.093964309E-3,2.886338346E-2,-3.054326167E-3
3.930434280E-1,6.872233935E-3,3.130684420E-2,-5.497787148E-3
3.952845170E-1,4.428773187E-3,2.901609987E-2,-3.054326167E-3
3.975174270E-1,-4.581489484E-4,3.145955876E-2,-5.497787148E-3
3.997553420E-1,-4.581489484E-4,3.023782931E-2,-6.719517522E-3
4.019913650E-1,-6.719517522E-3,2.794708498E-2,-6.872233935E-3
4.042270220E-1,-9.162978269E-3,2.321287990E-2,-8.093964309E-3
4.064637770E-1,-1.557706390E-2,1.481348183E-2,-6.872233935E-3
4.087006550E-1,-2.061670274E-2,8.857546374E-3,-5.803219974E-3
4.109375320E-1,-2.565634064E-2,2.901609987E-3,-5.803219974E-3
4.131742870E-1,-2.703078650E-2,-5.650503561E-3,-7.177666761E-3
4.154081130E-1,-3.207042441E-2,-1.160643995E-2,-7.177666761E-3
4.176361400E-1,-3.726277873E-2,-2.244929783E-2,-4.886921961E-3
4.198851640E-1,-4.108068720E-2,-2.840523422E-2,-7.330383174E-3
4.221210040E-1,-4.123340547E-2,-3.451388702E-2,-6.108652335E-3
4.243607500E-1,-4.382958263E-2,-4.413501546E-2,-8.704829961E-3
4.265945140E-1,-4.886921868E-2,-5.131268129E-2,-6.261368748E-3
4.288324900E-1,-5.390885845E-2,-5.482515693E-2,-7.483099122E-3
4.310680860E-1,-5.406157300E-2,-6.093380973E-2,-8.857546374E-3
4.333049020E-1,-5.772676691E-2,-6.444628537E-2,-8.857546374E-3
4.355413530E-1,-6.032294407E-2,-6.444628537E-2,-8.857546374E-3
4.377790240E-1,-6.032294407E-2,-6.811147183E-2,-1.252273750E-2
4.400150470E-1,-6.154467165E-2,-6.811147183E-2,-1.496619824E-2
4.422516800E-1,-6.398813426E-2,-6.673702598E-2,-1.863138936E-2
4.444883740E-1,-6.383541971E-2,-6.551529467E-2,-1.985312067E-2
4.467254960E-1,-6.383541971E-2,-6.078109145E-2,-1.985312067E-2
4.489619460E-1,-6.368270516E-2,-5.589416996E-2,-2.351831272E-2
4.511989450E-1,-6.352998316E-2,-4.856378585E-2,-2.474004216E-2
4.534356400E-1,-5.955936015E-2,-4.016438872E-2,-2.703078650E-2
4.556730060E-1,-5.696318299E-2,-2.932153270E-2,-2.458732575E-2
4.579086010E-1,-5.787948146E-2,-1.466076635E-2,-2.336559631E-2
4.601456620E-1,-6.001751125E-2,2.290744567E-3,-1.954768784E-2
4.623821730E-1,-5.971207842E-2,2.168571576E-2,-1.954768784E-2
4.646196000E-1,-6.169738993E-2,4.367686436E-2,-1.695151068E-2
4.668556230E-1,-6.261368841E-2,6.307183951E-2,-1.206458826E-2
4.690925000E-1,-6.215553731E-2,8.735372871E-2,-8.246680722E-3
4.713295000E-1,-6.291911751E-2,1.067487001E-1,-5.803219974E-3
4.735674150E-1,-6.643159688E-2,1.226311997E-1,-7.635815418E-4
4.758029490E-1,-7.238753140E-2,1.336267740E-1,6.566801574E-3
4.780395830E-1,-8.445212245E-2,1.423316002E-1,1.007927675E-2
4.802762770E-1,-9.178250283E-2,1.461495161E-1,1.252273750E-2
4.825102240E-1,-9.804387391E-2,1.463022232E-1,1.863138936E-2
4.847381910E-1,-1.116356254E-1,1.452332139E-1,2.336559631E-2
4.869862380E-1,-1.290452778E-1,1.383609772E-1,2.809980139E-2
4.892236030E-1,-1.464549452E-1,1.314887404E-1,3.283400834E-2
4.914640210E-1,-1.640173197E-1,1.159116775E-1,3.878994286E-2
4.936968700E-1,-1.841758788E-1,9.819658846E-2,4.337143153E-2
4.959337480E-1,-2.055561543E-1,7.788532227E-2,4.673119262E-2
4.981701370E-1,-2.280054539E-1,5.894849449E-2,5.146539584E-2
5.004081740E-1,-2.483167201E-1,3.634648025E-2,5.482515693E-2
5.026436480E-1,-2.721404731E-1,1.618792862E-2,5.818491429E-2
5.048803420E-1,-2.935207486E-1,-8.857546374E-3,6.276640296E-2
5.071170970E-1,-3.149010241E-1,-2.672535367E-2,6.750060618E-2
5.093520210E-1,-3.350595832E-1,-4.810563847E-2,7.330382615E-2
5.115791940E-1,-3.564398587E-1,-6.963863969E-2,7.910704613E-2
5.138278520E-1,-3.727805018E-1,-8.506298810E-2,8.506298810E-2
5.160639360E-1,-3.854559660E-1,-1.006400511E-1,9.224065393E-2
5.183008740E-1,-4.019493461E-1,-1.172861308E-1,1.006400511E-1
5.205212110E-1,-4.120286107E-1,-1.304197311E-1,1.090394482E-1
5.227572340E-1,-4.234823287E-1,-1.459967941E-1,1.186605766E-1
5.250111400E-1,-4.312708676E-1,-1.603521258E-1,1.270599663E-1
5.272517410E-1,-4.415028691E-1,-1.759291887E-1,1.354593635E-1
5.294888620E-1,-4.489859641E-1,-1.843285859E-1,1.379028261E-1
5.317214060E-1,-4.541783035E-1,-1.939497143E-1,1.414152980E-1
5.339577960E-1,-4.567744732E-1,-1.999056488E-1,1.450804919E-1
5.361949780E-1,-4.618141353E-1,-2.058615834E-1,1.487456858E-1
5.384313060E-1,-4.631885588E-1,-2.095267773E-1,1.485929638E-1
5.406682450E-1,-4.644103050E-1,-2.107485086E-1,1.485929638E-1
5.429054270E-1,-4.619668424E-1,-2.107485086E-1,1.485929638E-1
5.451427930E-1,-4.593706727E-1,-2.046398520E-1,1.487456858E-1
5.473782060E-1,-4.618141353E-1,-2.021963894E-1,1.511891484E-1
5.496114820E-1,-4.567744732E-1,-1.999056488E-1,1.524108797E-1
5.518399980E-1,-4.579962194E-1,-1.974621862E-1,1.536326110E-1
5.540885940E-1,-4.592179358E-1,-1.962404549E-1,1.524108797E-1
5.563255930E-1,-4.616613984E-1,-1.962404549E-1,1.524108797E-1
5.585651570E-1,-4.604396820E-1,-1.962404549E-1,1.499674171E-1
5.607992870E-1,-4.592179358E-1,-1.962404549E-1,1.487456858E-1
5.630365920E-1,-4.592179358E-1,-1.950187236E-1,1.450804919E-1
5.652724320E-1,-4.602869749E-1,-1.937969923E-1,1.438587606E-1
5.675091870E-1,-4.615086913E-1,-1.925752759E-1,1.426370293E-1
5.697458200E-1,-4.639521539E-1,-1.889100820E-1,1.426370293E-1
5.719836130E-1,-4.627304375E-1,-1.876883507E-1,1.438587606E-1
5.742193920E-1,-4.625777006E-1,-1.864666194E-1,1.414152980E-1
5.764560260E-1,-4.627304375E-1,-1.876883507E-1,1.426370293E-1
5.786928420E-1,-4.602869749E-1,-1.864666194E-1,1.450804919E-1
5.809305740E-1,-4.590652287E-1,-1.901318133E-1,1.438587606E-1
5.831662310E-1,-4.554000497E-1,-1.937969923E-1,1.463022232E-1
5.854000560E-1,-4.543310404E-1,-1.999056488E-1,1.475239545E-1
5.876275960E-1,-4.532620013E-1,-2.047925740E-1,1.511891484E-1
5.898764970E-1,-4.508185387E-1,-2.084577680E-1,1.511891484E-1
5.921134960E-1,-4.483750761E-1,-2.049452960E-1,1.511891484E-1
5.943529980E-1,-4.447098970E-1,-2.086104751E-1,1.463022232E-1
5.965840160E-1,-4.399756789E-1,-2.220495194E-1,1.414152980E-1
5.988128980E-1,-4.341724813E-1,-2.428189367E-1,1.377501190E-1
6.010602130E-1,-4.283692539E-1,-2.550362349E-1,1.353066564E-1
6.032968460E-1,-4.259257913E-1,-2.587014437E-1,1.328631938E-1
6.055362870E-1,-4.222606122E-1,-2.625193298E-1,1.291979998E-1
6.077704180E-1,-4.146247804E-1,-2.516764700E-1,1.305724531E-1
6.100071120E-1,-4.117231667E-1,-2.322815061E-1,1.293507218E-1
6.122441110E-1,-4.016439021E-1,-2.203696370E-1,1.295034289E-1
6.144809280E-1,-3.927863538E-1,-2.011273801E-1,1.333213449E-1
6.167184160E-1,-3.813326359E-1,-1.843285859E-1,1.408044398E-1
6.189537670E-1,-3.711006343E-1,-1.652390510E-1,1.447750628E-1
6.211908890E-1,-3.584251702E-1,-1.447750628E-1,1.510364264E-1
6.234274610E-1,-3.445279896E-1,-1.269072592E-1,1.548543423E-1
6.256645830E-1,-3.330742717E-1,-1.039998084E-1,1.574505121E-1
6.279010940E-1,-3.228422701E-1,-8.124507964E-2,1.638645977E-1
6.301379100E-1,-3.075706363E-1,-5.604688451E-2,1.640173197E-1
6.323749100E-1,-2.922990322E-1,-3.558290005E-2,1.618792862E-1
6.346122150E-1,-2.832887471E-1,-1.634064503E-2,1.571450830E-1
6.368478710E-1,-2.741257846E-1,6.414085161E-3,1.560760736E-1
6.390848710E-1,-2.626720667E-1,2.443460934E-2,1.476766765E-1
6.413215040E-1,-2.550362349E-1,3.649919853E-2,1.379028261E-1
6.435593580E-1,-2.484694421E-1,5.085453019E-2,1.331686229E-1
6.457950760E-1,-2.446515262E-1,5.681046844E-2,1.246165112E-1
6.480317700E-1,-2.383901626E-1,5.558873713E-2,1.186605766E-1
6.502687700E-1,-2.360994220E-1,4.948008433E-2,1.149953827E-1
6.525033270E-1,-2.324342281E-1,4.321871698E-2,1.101084575E-1
6.547301340E-1,-2.313652188E-1,3.359758854E-2,1.075122803E-1
6.569784250E-1,-2.302961946E-1,2.382374369E-2,1.026253626E-1
6.592153030E-1,-2.330450863E-1,9.315694682E-3,1.000291854E-1
6.614553540E-1,-2.359467000E-1,-8.857546374E-3,9.758572280E-2
6.636870440E-1,-2.399173230E-1,-2.580905706E-2,9.498954564E-2
6.659169020E-1,-2.414444834E-1,-4.153883830E-2,9.621127695E-2
6.681625680E-1,-2.431243658E-1,-6.093380973E-2,9.605856240E-2
6.704003000E-1,-2.484694421E-1,-8.384125680E-2,9.468411654E-2
6.726380930E-1,-2.538145185E-1,-1.055269688E-1,9.453139454E-2
6.748725290E-1,-2.603813112E-1,-1.272126883E-1,9.315694869E-2
6.771089800E-1,-2.658790946E-1,-1.527163088E-1,9.300423414E-2
6.793458570E-1,-2.700024247E-1,-1.707368344E-1,9.422596544E-2
6.815782170E-1,-2.751947939E-1,-1.889100820E-1,9.407325089E-2
6.838014230E-1,-2.819143236E-1,-2.118175179E-1,9.758572280E-2
6.860564890E-1,-2.846632004E-1,-2.275473028E-1,1.010981947E-1
6.882944040E-1,-2.874121070E-1,-2.383901626E-1,1.059851199E-1
6.905342730E-1,-2.887865305E-1,-2.480112910E-1,1.072068512E-1
6.927666330E-1,-2.889392674E-1,-2.528982162E-1,1.108720452E-1
6.950030230E-1,-2.903137207E-1,-2.590068579E-1,1.180497110E-1
6.972399610E-1,-2.878702581E-1,-2.577851415E-1,1.218676195E-1
6.994767770E-1,-2.866485119E-1,-2.542726696E-1,1.230893433E-1
7.017134720E-1,-2.829833329E-1,-2.567161322E-1,1.255328059E-1
7.039501660E-1,-2.816088796E-1,-2.518292069E-1,1.267545372E-1
7.061879590E-1,-2.741257846E-1,-2.435825169E-1,1.281289905E-1
7.084237380E-1,-2.715296149E-1,-2.386955917E-1,1.305724531E-1
7.106604320E-1,-2.652682364E-1,-2.327396572E-1,1.319468915E-1
7.128971880E-1,-2.528982162E-1,-2.232712507E-1,1.345430762E-1
7.151349200E-1,-2.452623993E-1,-2.150245607E-1,1.308778822E-1
7.173705760E-1,-2.376265824E-1,-2.066251636E-1,1.298088580E-1
7.196081250E-1,-2.263255715E-1,-1.947132945E-1,1.287398487E-1
7.218470780E-1,-2.176207453E-1,-1.875356287E-1,1.250746548E-1
7.240817580E-1,-2.038762718E-1,-1.841758788E-1,1.227839142E-1
7.263175980E-1,-1.925752759E-1,-1.722639948E-1,1.180497110E-1
7.285536200E-1,-1.788308024E-1,-1.652390510E-1,1.133155003E-1
7.307906810E-1,-1.663080603E-1,-1.557706445E-1,1.061378345E-1
7.330274980E-1,-1.550070494E-1,-1.438587606E-1,9.896016866E-2
7.352643140E-1,-1.350012124E-1,-1.357648075E-1,9.422596544E-2
7.375011920E-1,-1.200350225E-1,-1.264491081E-1,8.704829961E-2
7.397383130E-1,-1.049161032E-1,-1.157589629E-1,7.864890248E-2
7.419758620E-1,-9.117163718E-2,-1.050688252E-1,7.757988572E-2
7.442116410E-1,-7.360926270E-2,-8.964447677E-2,6.673702598E-2
7.464482130E-1,-5.711590126E-2,-7.177666575E-2,6.093380973E-2
7.486817940E-1,-3.604105115E-2,-6.246097013E-2,5.864306539E-2
7.509097610E-1,-1.970040426E-2,-4.825835302E-2,5.146539584E-2
7.531581130E-1,-3.512475174E-3,-4.123340547E-2,4.795292020E-2
7.553949900E-1,1.389718428E-2,-3.558290005E-2,4.444044828E-2
7.576352860E-1,3.115412779E-2,-2.977968007E-2,3.985895589E-2
7.598699050E-1,4.978551716E-2,-2.779436857E-2,3.756821156E-2
7.621054400E-1,6.337726861E-2,-2.565634064E-2,3.512475267E-2
7.643419510E-1,7.819075137E-2,-2.474004216E-2,3.283400834E-2
7.665785230E-1,8.933904022E-2,-2.244929783E-2,3.054326214E-2
7.688156450E-1,9.926560521E-2,-2.138028294E-2,2.443460934E-2
7.710525220E-1,1.104138941E-1,-1.924225502E-2,2.214386500E-2
7.732892770E-1,1.178969890E-1,-1.572977938E-2,1.863138936E-2
7.755261550E-1,1.288925707E-1,-1.588249579E-2,1.618792862E-2
7.777638260E-1,1.327104717E-1,-1.481348183E-2,1.007927675E-2
7.799991770E-1,1.426370293E-1,-1.130100712E-2,4.123340361E-3
7.822361160E-1,1.438587606E-1,-1.267545391E-2,4.581489484E-4
7.844729930E-1,1.513418704E-1,-1.160643995E-2,-5.650503561E-3
7.867103590E-1,1.588249654E-1,-1.053742506E-2,-1.038470957E-2
7.889459550E-1,1.589776874E-1,-4.428773187E-3,-1.649336144E-2
7.911827100E-1,1.614211351E-1,-3.207042580E-3,-2.260201424E-2
7.934197100E-1,1.652390510E-1,-3.359758761E-3,-2.626720630E-2
7.956577470E-1,1.676825136E-1,-9.162978968E-4,-2.871066704E-2
7.978932810E-1,1.701259762E-1,-9.162978968E-4,-3.115412779E-2
8.001299150E-1,1.715004146E-1,1.374446787E-3,-3.115412779E-2
8.023636180E-1,1.739438772E-1,5.039638374E-3,-3.344487399E-2
8.045914630E-1,1.727221459E-1,5.039638374E-3,-3.344487399E-2
8.068400590E-1,1.739438772E-1,3.817907767E-3,-3.588833287E-2
8.090768140E-1,1.716531366E-1,8.704829961E-3,-3.711006418E-2
8.113169270E-1,1.730275750E-1,1.603521220E-2,-3.466660157E-2
8.135514840E-1,1.730275750E-1,1.710422710E-2,-3.833179548E-2
8.157870190E-1,1.682933718E-1,2.214386500E-2,-3.955352306E-2
8.180236520E-1,1.634064466E-1,2.458732575E-2,-4.199698567E-2
8.202604080E-1,1.597412676E-1,2.474004216E-2,-4.092797264E-2
8.224972850E-1,1.524108797E-1,2.611448988E-2,-4.214970022E-2
8.247341630E-1,1.510364264E-1,2.611448988E-2,-4.214970022E-2
8.269708570E-1,1.424843222E-1,2.626720630E-2,-4.108068720E-2
8.292077340E-1,1.412625909E-1,2.382374369E-2,-4.230241850E-2
8.314423530E-1,1.337794960E-1,2.031126991E-2,-3.985895589E-2
8.336693430E-1,1.275181174E-1,1.924225502E-2,-3.634648025E-2
8.359176950E-1,1.262963861E-1,2.046398632E-2,-3.268129006E-2
8.381542680E-1,1.175915599E-1,2.061670274E-2,-2.779436857E-2
8.403912670E-1,1.114829108E-1,2.321287990E-2,-2.535090782E-2
8.426162430E-1,1.004873365E-1,2.107485011E-2,-2.672535367E-2
8.448649610E-1,9.437867999E-2,2.229658142E-2,-2.794708498E-2
8.471018380E-1,8.445212245E-2,2.382374369E-2,-3.054326214E-2
8.493425610E-1,7.590000331E-2,2.641992271E-2,-3.176499158E-2
8.515750440E-1,6.230825558E-2,2.183843218E-2,-3.558290005E-2
8.538114940E-1,5.604688451E-2,1.466076635E-2,-3.695734590E-2
8.560484940E-1,4.489859566E-2,7.483099122E-3,-4.321871698E-2
8.582862870E-1,3.497203439E-2,1.679879380E-3,-4.566217586E-2
8.605219430E-1,2.229658142E-2,-1.145372353E-2,-4.703662544E-2
8.627584550E-1,1.221730467E-2,-2.580905706E-2,-4.963280261E-2
8.649952710E-1,3.359758761E-3,-3.894266114E-2,-5.345070735E-2
8.672331250E-1,-8.093964309E-3,-5.696318299E-2,-5.238169432E-2
8.694695140E-1,-1.954768784E-2,-7.376197726E-2,-5.131268129E-2
8.717076730E-1,-2.718350291E-2,-8.811730891E-2,-4.902193695E-2
8.739418650E-1,-3.741549700E-2,-1.036943719E-1,-4.550946131E-2
8.761791090E-1,-4.642575979E-2,-1.192714423E-1,-4.199698567E-2
8.784152540E-1,-5.421429127E-2,-1.385136992E-1,-3.726277873E-2
8.806528030E-1,-5.940664560E-2,-1.542434692E-1,-3.130684420E-2
8.828893750E-1,-6.582073122E-2,-1.650863290E-1,-2.641992271E-2
8.851271680E-1,-7.116580009E-2,-1.782199293E-1,-1.557706390E-2
8.873627030E-1,-7.254024595E-2,-1.831068546E-1,-9.468411095E-3
8.895995800E-1,-7.635815442E-2,-1.866193265E-1,-4.581489135E-3
8.918358470E-1,-8.246681094E-2,-1.866193265E-1,-2.138028387E-3
8.940729690E-1,-8.750644326E-2,-1.876883507E-1,1.527163113E-4
8.963097240E-1,-9.101892263E-2,-1.828014255E-1,1.374446787E-3
8.985437950E-1,-9.208793938E-2,-1.766927689E-1,1.374446787E-3
9.007731640E-1,-9.575312585E-2,-1.705841124E-1,2.596177394E-3
9.030209060E-1,-9.926560521E-2,-1.620320082E-1,2.596177394E-3
9.052565630E-1,-9.789115191E-2,-1.534798890E-1,1.527163084E-3
9.074959420E-1,-9.880745411E-2,-1.437060535E-1,2.748893574E-3
9.097299510E-1,-9.865473956E-2,-1.353066564E-1,3.970623948E-3
9.119670120E-1,-9.850201756E-2,-1.291979998E-1,1.527163084E-3
9.142036450E-1,-9.972374886E-2,-1.243110746E-1,3.054326226E-4
9.164406450E-1,-1.007927656E-1,-1.157589629E-1,4.581489484E-4
9.186774000E-1,-9.575312585E-2,-1.085812971E-1,1.679879380E-3
9.209147660E-1,-9.315694869E-2,-1.026253626E-1,4.123340361E-3
9.231506060E-1,-9.056077152E-2,-9.789115191E-2,6.719517522E-3
9.253876660E-1,-8.811730891E-2,-9.666942805E-2,1.038470957E-2
9.276242990E-1,-8.063421398E-2,-9.315694869E-2,1.649336144E-2
9.298620920E-1,-7.941248268E-2,-9.071348608E-2,2.153299935E-2
9.320978100E-1,-7.574728876E-2,-8.842274547E-2,2.764165215E-2
9.343345650E-1,-7.330382615E-2,-8.597928286E-2,3.130684420E-2
9.365716870E-1,-7.315111160E-2,-7.757988572E-2,3.375030309E-2
9.388086870E-1,-7.666359097E-2,-7.147123665E-2,3.252857551E-2
9.410443430E-1,-8.277224004E-2,-7.254024595E-2,3.008511290E-2
9.432810380E-1,-9.147707373E-2,-7.238753140E-2,2.626720630E-2
9.455177930E-1,-9.514226019E-2,-7.590000331E-2,2.015855350E-2
9.477548540E-1,-1.064432710E-1,-8.659014851E-2,1.389718428E-2
9.499914260E-1,-1.165225431E-1,-9.850201756E-2,1.130100712E-2
9.522282420E-1,-1.278235465E-1,-1.140790880E-1,8.704829961E-3
9.544652420E-1,-1.342376322E-1,-1.285871267E-1,6.108652335E-3
9.567026080E-1,-1.458440721E-1,-1.501201391E-1,3.512475174E-3
9.589383860E-1,-1.536326110E-1,-1.730275750E-1,3.359758761E-3
9.611750200E-1,-1.615738571E-1,-2.008219510E-1,5.650503561E-3
9.634119580E-1,-1.682933718E-1,-2.273945808E-1,1.282817032E-2
9.656490800E-1,-1.763873398E-1,-2.564106882E-1,2.000583708E-2
9.678852250E-1,-1.818851233E-1,-2.780964077E-1,3.329215571E-2
9.701219800E-1,-1.898263693E-1,-3.046690524E-1,4.780020565E-2
9.723589800E-1,-2.002110779E-1,-3.226895630E-1,6.475171447E-2
9.745967120E-1,-2.104430795E-1,-3.382666409E-1,7.803803682E-2
9.768324900E-1,-2.208277881E-1,-3.550654352E-1,9.498954564E-2
9.790690630E-1,-2.370157093E-1,-3.631593883E-1,1.082758680E-1
9.813055740E-1,-2.458732575E-1,-3.678936064E-1,1.204931661E-1
9.835423900E-1,-2.606867552E-1,-3.700316250E-1,1.301143020E-1
9.857792070E-1,-2.779437006E-1,-3.685044646E-1,1.397354305E-1
9.880158400E-1,-2.926044464E-1,-3.620903790E-1,1.458440721E-1
9.902531450E-1,-3.074179292E-1,-3.568980098E-1,1.542434692E-1
9.924904490E-1,-3.269656301E-1,-3.455969989E-1,1.614211351E-1
9.947263500E-1,-3.426954150E-1,-3.356704414E-1,1.626428664E-1
9.969630450E-1,-3.610213697E-1,-3.255911767E-1,1.673770845E-1
9.991997390E-1,-3.769038618E-1,-3.191770911E-1,1.696678251E-1
1.001437654E0,-3.940080702E-1,-3.090978265E-1,1.696678251E-1
1.003673006E0,-4.074471295E-1,-3.052799106E-1,1.756237596E-1
1.005909883E0,-4.210388660E-1,-3.037527502E-1,1.779145002E-1
1.008143769E0,-4.332561791E-1,-3.011565804E-1,1.791362315E-1
1.010370149E0,-4.456261992E-1,-3.057380617E-1,1.814269722E-1
1.012605744E0,-4.555527568E-1,-3.078760803E-1,1.850921661E-1
1.014845491E0,-4.667010605E-1,-3.126102984E-1,1.886046380E-1
1.017096528E0,-4.754058719E-1,-3.161227703E-1,1.908953935E-1
1.019333162E0,-4.818199575E-1,-3.255911767E-1,1.921171248E-1
1.021569978E0,-4.894557893E-1,-3.327688277E-1,1.956295967E-1
1.023803865E0,-4.943426847E-1,-3.338378668E-1,1.980730593E-1
1.026041047E0,-4.980078936E-1,-3.338378668E-1,2.017382532E-1
1.028278535E0,-5.018258095E-1,-3.349068761E-1,2.028072625E-1
1.030514070E0,-5.041165352E-1,-3.312416673E-1,2.040289938E-1
1.032750642E0,-5.065600276E-1,-3.251330256E-1,2.064724565E-1
1.034987215E0,-5.041165352E-1,-3.240640163E-1,2.115120888E-1
1.037224275E0,-5.015203953E-1,-3.179553747E-1,2.102903575E-1
1.039460908E0,-5.001459122E-1,-3.155119121E-1,2.102903575E-1
1.041697664E0,-4.975497425E-1,-3.083342314E-1,2.078468949E-1
1.043934541E0,-4.876231849E-1,-3.013092875E-1,2.092213482E-1
1.046172395E0,-4.824308157E-1,-2.929098904E-1,2.032654136E-1
1.048408174E0,-4.700607955E-1,-2.846632004E-1,2.021963894E-1
1.050644746E0,-4.624249935E-1,-2.738203406E-1,1.997529417E-1
1.052881013E0,-4.534147382E-1,-2.594650090E-1,1.937969923E-1
1.055118074E0,-4.395175576E-1,-2.475531399E-1,1.878410578E-1
1.057355012E0,-4.268420935E-1,-2.260201424E-1,1.831068546E-1
1.059592012E0,-4.127921760E-1,-2.044871449E-1,1.748601794E-1
1.061828645E0,-3.975205719E-1,-1.828014255E-1,1.664607823E-1
1.064066316E0,-3.810271919E-1,-1.612684280E-1,1.605048478E-1
1.066301668E0,-3.657555580E-1,-1.397354305E-1,1.547016203E-1
1.068535981E0,-3.454442918E-1,-1.146899462E-1,1.450804919E-1
1.070764009E0,-3.265074790E-1,-9.086620808E-2,1.392772794E-1
1.073012971E0,-3.075706363E-1,-6.688974798E-2,1.346957833E-1
1.075248933E0,-2.858849466E-1,-3.695734590E-2,1.288925707E-1
1.077488375E0,-2.594650090E-1,-3.512475174E-3,1.255328059E-1
1.079723054E0,-2.403754741E-1,2.275473066E-2,1.221730486E-1
1.081962556E0,-2.200642079E-1,5.146539584E-2,1.212567538E-1
1.084195772E0,-1.960877478E-1,8.261952549E-2,1.191187203E-1
1.086432588E0,-1.757764816E-1,1.113301888E-1,1.182024255E-1
1.088668550E0,-1.518000066E-1,1.412625909E-1,1.172861308E-1
1.090906221E0,-1.327104717E-1,1.663080603E-1,1.174388453E-1
1.093142793E0,-1.088867337E-1,1.913535446E-1,1.177442744E-1
1.095376679E0,-8.750644326E-2,2.115120888E-1,1.156062484E-1
1.097601960E0,-6.612616032E-2,2.342668176E-1,1.134682223E-1
1.099842195E0,-4.352414981E-2,2.532036304E-1,1.101084575E-1
1.102089509E0,-2.351831272E-2,2.686280012E-1,1.053742543E-1
1.104329256E0,-2.290744567E-3,2.838996351E-1,1.007927656E-1
1.106565889E0,1.893682219E-2,2.944370508E-1,9.361509979E-2
1.108800081E0,3.161227703E-2,3.063489199E-1,8.155050874E-2
1.111036836E0,4.428773001E-2,3.182607889E-1,6.826419383E-2
1.113273347E0,6.047565863E-2,3.239113092E-1,5.131268129E-2
1.115510225E0,7.422012836E-2,3.237585723E-1,3.176499158E-2
1.117748018E0,8.277224004E-2,3.187189400E-1,1.343903504E-2
1.119983858E0,9.147707373E-2,3.149010241E-1,-4.734205548E-3
1.122220491E0,9.880745411E-2,3.037527502E-1,-2.061670274E-2
1.124457002E0,1.072068512E-1,2.939788997E-1,-2.916881628E-2
1.126694002E0,1.131627858E-1,2.805398703E-1,-4.260785133E-2
1.128930635E0,1.130100712E-1,2.683225572E-1,-5.131268129E-2
1.131167451E0,1.116356254E-1,2.562579811E-1,-5.864306539E-2
1.133404512E0,1.139263660E-1,2.464841306E-1,-6.490442902E-2
1.135642000E0,1.137736514E-1,2.403754741E-1,-7.223481685E-2
1.137877351E0,1.110247597E-1,2.258674204E-1,-7.834346592E-2
1.140114168E0,1.098030284E-1,2.223549485E-1,-7.971791178E-2
1.142351045E0,1.059851199E-1,2.127338201E-1,-8.582656831E-2
1.144589082E0,1.035416573E-1,2.127338201E-1,-8.827003092E-2
1.146824434E0,9.728029370E-2,2.116648108E-1,-9.086620808E-2
1.149061250E0,9.972374886E-2,2.079996169E-1,-9.208793938E-2
1.151296541E0,9.865473956E-2,2.127338201E-1,-9.453139454E-2
1.153530000E0,9.254608303E-2,2.177734673E-1,-9.575312585E-2
1.155771394E0,9.514226019E-2,2.189951837E-1,-9.575312585E-2
1.158008027E0,9.147707373E-2,2.238821089E-1,-9.330966324E-2
1.160246309E0,9.392052889E-2,2.273945808E-1,-9.315694869E-2
1.162481843E0,9.162978828E-2,2.347249687E-1,-8.949175477E-2
1.164718233E0,9.789115191E-2,2.371684313E-1,-8.827003092E-2
1.166955049E0,1.015563458E-1,2.394591719E-1,-8.582656831E-2
1.169192353E0,1.027780771E-1,2.382374406E-1,-8.460483700E-2
1.171429963E0,1.075122803E-1,2.319760770E-1,-7.956519723E-2
1.173665498E0,1.110247597E-1,2.258674204E-1,-7.590000331E-2
1.175902009E0,1.169806942E-1,2.173153162E-1,-7.223481685E-2
1.178138582E0,1.206458881E-1,2.112066597E-1,-6.979135424E-2
1.180372529E0,1.191187203E-1,2.014328092E-1,-6.246097013E-2
1.182599763E0,1.212567538E-1,1.893682331E-1,-6.139195710E-2
1.184848787E0,1.235474944E-1,1.771509200E-1,-6.139195710E-2
1.187085908E0,1.256855279E-1,1.661553532E-1,-5.772676691E-2
1.189326814E0,1.291979998E-1,1.551597714E-1,-5.772676691E-2
1.191559358E0,1.288925707E-1,1.406517178E-1,-5.772676691E-2
1.193796174E0,1.298088580E-1,1.259909570E-1,-5.665775016E-2
1.196032625E0,1.296561509E-1,1.163698286E-1,-5.665775016E-2
1.198269502E0,1.317941695E-1,1.029307917E-1,-5.665775016E-2
1.200505708E0,1.353066564E-1,9.071348608E-2,-5.543602258E-2
1.202740632E0,1.325577646E-1,7.987063378E-2,-5.558873713E-2
1.204979951E0,1.348485053E-1,7.131851465E-2,-5.681046844E-2
1.207217500E0,1.359175146E-1,6.032294407E-2,-5.803219974E-2
1.209453950E0,1.357648075E-1,5.681046844E-2,-5.681046844E-2
1.211690156E0,1.345430762E-1,5.314527452E-2,-5.681046844E-2
1.213926729E0,1.394299865E-1,5.054909736E-2,-5.803219974E-2
1.216164522E0,1.429424733E-1,4.444044828E-2,-5.925392732E-2
1.218400300E0,1.443169117E-1,4.566217586E-2,-6.169738993E-2
1.220636873E0,1.455386430E-1,4.566217586E-2,-6.536258012E-2
1.222873506E0,1.479821056E-1,4.444044828E-2,-7.024950534E-2
1.225111482E0,1.481348276E-1,4.673119262E-2,-7.635815442E-2
1.227347139E0,1.505782902E-1,4.795292020E-2,-8.246681094E-2
1.229581880E0,1.556179225E-1,5.146539584E-2,-8.857546002E-2
1.231811861E0,1.569923609E-1,5.513058975E-2,-9.590584040E-2
1.234057100E0,1.634064466E-1,6.230825558E-2,-1.030835137E-1
1.236294099E0,1.660026312E-1,6.826419383E-2,-1.043052375E-1
1.238532808E0,1.663080603E-1,8.292495459E-2,-1.090394482E-1
1.240767854E0,1.727221459E-1,9.239336848E-2,-1.139263660E-1
1.243005342E0,1.777617931E-1,1.044579595E-1,-1.125519201E-1
1.245241243E0,1.792889535E-1,1.165225431E-1,-1.162171140E-1
1.247475007E0,1.820378453E-1,1.298088580E-1,-1.172861308E-1
1.249702303E0,1.823432744E-1,1.408044398E-1,-1.185078546E-1
1.251951082E0,1.837177277E-1,1.528690308E-1,-1.160643995E-1
1.254187898E0,1.852448881E-1,1.673770845E-1,-1.122464910E-1
1.256427706E0,1.866193265E-1,1.759291887E-1,-1.098030284E-1
1.258661653E0,1.867720485E-1,1.843285859E-1,-1.061378345E-1
1.260899385E0,1.907426715E-1,1.976149082E-1,-1.010981947E-1
1.263135042E0,1.908953935E-1,2.073887438E-1,-9.865473956E-2
1.265372102E0,1.908953935E-1,2.134974003E-1,-9.239336848E-2
1.267608308E0,1.886046380E-1,2.183843255E-1,-8.628471941E-2
1.269845125E0,1.873829067E-1,2.255619913E-1,-8.139779419E-2
1.272081697E0,1.873829067E-1,2.244929820E-1,-7.528914511E-2
1.274318757E0,1.837177277E-1,2.244929820E-1,-6.918048859E-2
1.276555635E0,1.797471046E-1,2.209804952E-1,-6.078109145E-2
1.278793184E0,1.760819107E-1,2.173153162E-1,-5.711590126E-2
1.281028657E0,1.708895564E-1,2.113593817E-1,-5.467243865E-2
1.283265352E0,1.670716405E-1,2.005165219E-1,-5.115996301E-2
1.285499604E0,1.606575549E-1,1.933388561E-1,-4.627304152E-2
1.287728975E0,1.556179225E-1,1.837177277E-1,-4.520402849E-2
1.289975862E0,1.492038369E-1,1.754710376E-1,-4.520402849E-2
1.292212617E0,1.392772794E-1,1.682933718E-1,-5.024366826E-2
1.294452242E0,1.305724531E-1,1.600466967E-1,-5.283984542E-2
1.296687166E0,1.204931661E-1,1.504255682E-1,-6.032294407E-2
1.298922578E0,1.117883399E-1,1.409571618E-1,-6.536258012E-2
1.301159639E0,9.926560521E-2,1.302670091E-1,-7.162395120E-2
1.303396150E0,8.933904022E-2,1.232420653E-1,-7.773260027E-2
1.305633088E0,7.299839705E-2,1.101084575E-1,-8.048149943E-2
1.307869844E0,5.925392732E-2,9.712757170E-2,-8.552113175E-2
1.310106599E0,4.688390717E-2,8.888089657E-2,-8.933904022E-2
1.312343477E0,3.191770986E-2,8.185594529E-2,-9.193521738E-2
1.314579988E0,1.954768784E-2,7.483099401E-2,-9.208793938E-2
1.316812593E0,7.024950348E-3,6.780604273E-2,-9.346238524E-2
1.319053132E0,-3.054326167E-3,5.696318299E-2,-9.468411654E-2
1.321289705E0,-1.175915636E-2,4.871650413E-2,-9.239336848E-2
1.323527803E0,-1.817324013E-2,4.276056588E-2,-9.132435173E-2
1.325763704E0,-2.687807009E-2,3.924809024E-2,-8.888089657E-2
1.328000520E0,-3.298672289E-2,3.695734590E-2,-8.659014851E-2
1.330237581E0,-3.558290005E-2,3.466660157E-2,-8.292495459E-2
1.332475068E0,-3.817907721E-2,2.855795063E-2,-7.803803682E-2
1.334710603E0,-4.199698567E-2,2.382374369E-2,-7.559457421E-2
1.336947175E0,-4.444044828E-2,2.260201424E-2,-7.070764899E-2
1.339183748E0,-4.948008433E-2,2.153299935E-2,-6.841690838E-2
1.341420869E0,-5.192354694E-2,2.397646010E-2,-6.352998316E-2
1.343657686E0,-5.054909736E-2,3.252857551E-2,-5.849034712E-2
1.345894258E0,-5.421429127E-2,3.985895589E-2,-5.238169432E-2
1.348131318E0,-5.650503561E-2,4.596760869E-2,-4.749477282E-2
1.350365815E0,-6.001751125E-2,5.574145541E-2,-4.627304152E-2
1.352592439E0,-6.352998316E-2,6.429356337E-2,-4.260785133E-2
1.354840974E0,-6.841690838E-2,6.918048859E-2,-4.138612002E-2
1.357077852E0,-7.192938030E-2,7.422012836E-2,-4.138612002E-2
1.359318941E0,-7.330382615E-2,7.422012836E-2,-3.649919853E-2
1.361551729E0,-7.452555746E-2,7.177666575E-2,-3.649919853E-2
1.363788057E0,-7.696902007E-2,7.055493444E-2,-3.298672289E-2
1.366024873E0,-8.093964309E-2,5.849034712E-2,-3.176499158E-2
1.368262849E0,-8.979719132E-2,5.024366826E-2,-3.313944116E-2
1.370498506E0,-8.994990587E-2,4.046982154E-2,-3.191770986E-2
1.372735139E0,-9.147707373E-2,2.718350291E-2,-3.329215571E-2
1.374971834E0,-9.285151958E-2,1.511891466E-2,-3.573561832E-2
1.377208650E0,-9.697485715E-2,1.832595794E-3,-3.344487399E-2
1.379442292E0,-9.834930301E-2,-1.267545391E-2,-3.466660157E-2
1.381670015E0,-9.865473956E-2,-2.367102914E-2,-3.588833287E-2
1.383918855E0,-9.758572280E-2,-3.222314268E-2,-3.344487399E-2
1.386156465E0,-9.407325089E-2,-4.306599870E-2,-3.481931984E-2
1.388395296E0,-9.315694869E-2,-5.406157300E-2,-3.359758854E-2
1.390629182E0,-9.453139454E-2,-6.383541971E-2,-3.115412779E-2
1.392865755E0,-8.979719132E-2,-6.872233748E-2,-2.993239649E-2
1.395102754E0,-8.735372871E-2,-7.483099401E-2,-2.993239649E-2
1.397339326E0,-8.384125680E-2,-7.849618047E-2,-2.748893574E-2
1.399576082E0,-8.017606288E-2,-8.231408894E-2,-2.626720630E-2
1.401812837E0,-7.406741381E-2,-7.987063378E-2,-2.489275858E-2
1.404050264E0,-7.269296050E-2,-7.880161703E-2,-2.122756653E-2
1.406286348E0,-6.902777404E-2,-7.269296050E-2,-2.000583708E-2
1.408523225E0,-6.398813426E-2,-7.040221989E-2,-1.863138936E-2
1.410759798E0,-6.383541971E-2,-6.551529467E-2,-1.863138936E-2
1.412996492E0,-6.368270516E-2,-5.711590126E-2,-1.740965992E-2
1.415233064E0,-5.879577994E-2,-5.589416996E-2,-1.618792862E-2
1.417468660E0,-5.742133409E-2,-5.115996301E-2,-1.740965992E-2
1.419702058E0,-5.482515693E-2,-4.627304152E-2,-1.725694351E-2
1.421944307E0,-5.604688451E-2,-4.260785133E-2,-1.603521220E-2
1.424180086E0,-5.726861581E-2,-3.772092983E-2,-1.359175146E-2
1.426417940E0,-5.589416996E-2,-3.543018550E-2,-1.359175146E-2
1.428653840E0,-5.467243865E-2,-2.932153270E-2,-1.114829071E-2
1.430891511E0,-5.451972410E-2,-2.687807009E-2,-1.237002108E-2
1.433126924E0,-5.696318299E-2,-2.076941915E-2,-1.114829071E-2
1.435363679E0,-5.940664560E-2,-2.076941915E-2,-1.237002108E-2
1.437600496E0,-5.803219974E-2,-1.710422710E-2,-1.114829071E-2
1.439838350E0,-6.032294407E-2,-1.221730467E-2,-1.237002108E-2
1.442073945E0,-6.169738993E-2,-1.221730467E-2,-1.237002108E-2
1.444310762E0,-6.276640296E-2,-7.330383174E-3,-1.481348183E-2
1.446544465E0,-6.276640296E-2,-7.330383174E-3,-1.481348183E-2
1.448772920E0,-6.276640296E-2,-8.552113548E-3,-1.603521220E-2
1.451021028E0,-6.643159688E-2,-9.773843922E-3,-1.603521220E-2
1.453258027E0,-6.643159688E-2,-1.084285788E-2,-1.847867295E-2
1.455497774E0,-6.643159688E-2,-7.330383174E-3,-1.847867295E-2
1.457732637E0,-6.520986557E-2,-8.552113548E-3,-2.092213556E-2
1.459967927E0,-6.520986557E-2,-8.552113548E-3,-2.092213556E-2
1.462204805E0,-6.154467165E-2,-1.343903504E-2,-2.214386500E-2
1.464441255E0,-5.910121277E-2,-9.773843922E-3,-2.336559631E-2
1.466678132E0,-5.665775016E-2,-1.114829071E-2,-2.580905706E-2
1.468914766E0,-5.283984542E-2,-5.039638374E-3,-2.443460934E-2
1.471151765E0,-4.413501546E-2,-2.901609987E-3,-2.565634064E-2
1.473388643E0,-3.909537569E-2,-4.581489484E-4,-2.550362423E-2
1.475626192E0,-3.527746722E-2,5.497787148E-3,-2.306016348E-2
1.477861726E0,-2.672535367E-2,9.010262787E-3,-2.168571576E-2
1.480098604E0,-2.046398632E-2,1.481348183E-2,-1.924225502E-2
1.482335115E0,-1.160643995E-2,2.321287990E-2,-1.664607786E-2
1.484569001E0,-1.679879380E-3,2.672535367E-2,-1.404990070E-2
1.486796785E0,5.803219974E-3,3.375030309E-2,-7.941247895E-3
1.489045381E0,1.206458826E-2,4.092797264E-2,-5.345070735E-3
1.491282747E0,2.076941915E-2,4.688390717E-2,-2.748893574E-3
1.493523225E0,2.703078650E-2,5.039638281E-2,9.162978968E-4
1.495754060E0,3.436116874E-2,5.390885845E-2,1.069014193E-3
1.497985261E0,4.184427112E-2,5.742133409E-2,3.512475174E-3
1.500229158E0,5.177082866E-2,5.711590126E-2,4.886921961E-3
1.502467012E0,6.032294407E-2,5.940664560E-2,7.330383174E-3
1.504704622E0,6.536258012E-2,6.414084882E-2,9.926560335E-3
1.506939424E0,7.147123665E-2,6.398813426E-2,8.704829961E-3
1.509176301E0,7.773260027E-2,6.520986557E-2,8.704829961E-3
1.511411347E0,8.139779419E-2,6.627888232E-2,6.414085161E-3
1.513638154E0,8.888089657E-2,6.612616032E-2,3.970623948E-3
1.515886384E0,9.117163718E-2,6.368270516E-2,2.748893574E-3
1.518122652E0,9.621127695E-2,6.352998316E-2,-9.162978968E-4
1.520359041E0,1.023199260E-1,6.108652428E-2,-4.581489135E-3
1.522582002E0,1.035416573E-1,6.093380973E-2,-5.803219974E-3
1.524833528E0,1.059851199E-1,5.971207842E-2,-1.053742506E-2
1.527070588E0,1.073595658E-1,6.215553731E-2,-1.420261711E-2
1.529311799E0,1.085812971E-1,6.337726861E-2,-1.542434748E-2
1.531543916E0,1.073595658E-1,5.971207842E-2,-1.786780916E-2
1.533780427E0,1.110247597E-1,5.971207842E-2,-2.031126991E-2
1.536016756E0,1.073595658E-1,5.849034712E-2,-2.290744707E-2
1.538253816E0,1.036943719E-1,5.971207842E-2,-2.412917651E-2
1.540490632E0,1.024726480E-1,5.864306539E-2,-2.657263726E-2
1.542727266E0,1.010981947E-1,5.619960278E-2,-2.901609987E-2
1.544964387E0,9.865473956E-2,5.742133409E-2,-3.023782931E-2
1.547202058E0,9.865473956E-2,5.497787148E-2,-3.023782931E-2
1.549437471E0,9.376781434E-2,5.757404864E-2,-3.023782931E-2
1.551674287E0,9.376781434E-2,5.635231733E-2,-2.779436857E-2
1.553910738E0,9.010262042E-2,5.513058975E-2,-3.039054573E-2
1.556147737E0,8.765916526E-2,6.017022580E-2,-3.039054573E-2
1.558384736E0,8.277224004E-2,6.017022580E-2,-3.161227703E-2
1.560618257E0,8.032877743E-2,5.910121277E-2,-2.916881628E-2
1.562846162E0,7.788532227E-2,6.276640296E-2,-3.039054573E-2
1.565095613E0,7.910704613E-2,6.383541971E-2,-2.794708498E-2
1.567331453E0,7.788532227E-2,6.520986557E-2,-2.794708498E-2
1.569571077E0,7.788532227E-2,6.276640296E-2,-2.550362423E-2
1.571804963E0,7.544185966E-2,6.398813426E-2,-2.794708498E-2
1.574042940E0,7.040221989E-2,6.169738993E-2,-2.565634064E-2
1.576278535E0,7.406741381E-2,5.910121277E-2,-2.428189293E-2
1.578515108E0,7.284568250E-2,6.032294407E-2,-2.306016348E-2
1.580748872E0,7.162395120E-2,5.681046844E-2,-2.199114859E-2
1.582977693E0,6.902777404E-2,5.558873713E-2,-1.954768784E-2
1.585225313E0,7.269296050E-2,5.314527452E-2,-1.954768784E-2
1.587462129E0,7.391469181E-2,5.558873713E-2,-1.817324013E-2
1.589701631E0,7.513642311E-2,5.070181563E-2,-1.695151068E-2
1.591935518E0,7.254024595E-2,4.459316283E-2,-1.710422710E-2
1.594169465E0,7.376197726E-2,4.214970022E-2,-1.466076635E-2
1.596397737E0,6.979135424E-2,3.375030309E-2,-1.221730467E-2
1.598646516E0,6.734789163E-2,3.252857551E-2,-1.099557430E-2
1.600883699E0,6.597344577E-2,2.535090782E-2,-1.114829071E-2
1.603121980E0,6.459899992E-2,2.046398632E-2,-1.114829071E-2
1.605356111E0,5.971207842E-2,1.939497143E-2,-9.926560335E-3
1.607592683E0,5.589416996E-2,1.588249579E-2,-9.926560335E-3
1.609829622E0,5.222897977E-2,1.466076635E-2,-8.857546374E-3
1.612066377E0,4.963280261E-2,1.114829071E-2,-7.635815535E-3
1.614303132E0,4.337143153E-2,9.926560335E-3,-3.970623948E-3
1.616540010E0,3.848451003E-2,7.635815535E-3,-2.748893574E-3
1.618777498E0,3.100141138E-2,7.788531948E-3,-2.901609987E-3
1.621013032E0,2.733621933E-2,7.941247895E-3,7.635815418E-4
1.623249727E0,1.985312067E-2,5.650503561E-3,6.108652451E-4
1.625486543E0,1.359175146E-2,2.138028387E-3,3.054326167E-3
1.627723604E0,7.483099122E-3,-1.374446787E-3,4.276056774E-3
1.629960176E0,1.221730490E-3,-4.886921961E-3,5.345070735E-3
1.632196687E0,-1.374446787E-3,-4.886921961E-3,9.010262787E-3
1.634433748E0,-7.483099122E-3,-8.399397135E-3,9.010262787E-3
1.636671358E0,-1.252273750E-2,-1.069014147E-2,1.252273750E-2
1.638907258E0,-1.496619824E-2,-1.069014147E-2,1.496619824E-2
1.641144014E0,-2.000583708E-2,-1.175915636E-2,1.618792862E-2
1.643380647E0,-2.244929783E-2,-1.420261711E-2,1.618792862E-2
1.645618562E0,-2.382374369E-2,-1.786780916E-2,1.740965992E-2
1.647850923E0,-2.504547499E-2,-1.786780916E-2,2.107485011E-2
1.650078767E0,-2.626720630E-2,-2.015855350E-2,2.092213556E-2
1.652327302E0,-2.504547499E-2,-1.893682219E-2,2.351831272E-2
1.654565401E0,-2.504547499E-2,-1.893682219E-2,2.474004216E-2
1.656803987E0,-2.397646010E-2,-2.153299935E-2,2.718350291E-2
1.659037813E0,-2.015855350E-2,-1.786780916E-2,2.840523422E-2
1.661274141E0,-1.527163107E-2,-2.168571576E-2,2.596177347E-2
1.663511445E0,-1.404990070E-2,-2.412917651E-2,2.596177347E-2
1.665748018E0,-1.053742506E-2,-2.535090782E-2,3.084869497E-2
1.667984834E0,-5.497787148E-3,-2.061670274E-2,2.977968007E-2
1.670221650E0,-1.832595794E-3,-2.061670274E-2,3.100141138E-2
1.672459443E0,1.985311974E-3,-1.832595654E-2,3.100141138E-2
1.674694978E0,6.872233935E-3,-1.725694351E-2,2.855795063E-2
1.676931611E0,1.191187184E-2,-1.359175146E-2,2.626720630E-2
1.679168123E0,1.557706390E-2,-1.252273750E-2,2.871066704E-2
1.681405183E0,2.061670274E-2,-1.145372353E-2,2.626720630E-2
1.683640047E0,2.306016348E-2,-9.010262787E-3,2.397646010E-2
1.685871553E0,2.565634064E-2,-6.719517522E-3,2.519819140E-2
1.688115693E0,3.069597855E-2,-1.832595794E-3,2.641992271E-2
1.690353242E0,3.069597855E-2,-6.108652451E-4,2.153299935E-2
1.692590547E0,3.329215571E-2,2.901609987E-3,1.786780916E-2
1.694825410E0,3.329215571E-2,1.679879380E-3,1.664607786E-2
1.697062166E0,3.573561832E-2,4.123340361E-3,1.420261711E-2
1.699299043E0,3.817907721E-2,2.748893574E-3,1.313360315E-2
1.701535920E0,3.833179548E-2,6.414085161E-3,9.468411095E-3
1.703772615E0,3.848451003E-2,1.007927675E-2,4.581489135E-3
1.706009553E0,3.604105115E-2,1.252273750E-2,3.359758761E-3
1.708247285E0,3.481931984E-2,1.130100712E-2,7.635815418E-4
1.710482881E0,3.359758854E-2,1.267545391E-2,-4.123340361E-3
1.712718049E0,3.115412779E-2,1.267545391E-2,-4.123340361E-3
1.714949617E0,2.871066704E-2,1.389718428E-2,-9.010262787E-3
1.717194063E0,2.504547499E-2,1.282817032E-2,-1.023199316E-2
1.719429841E0,2.138028294E-2,1.160643995E-2,-1.511891466E-2
1.721668062E0,2.015855350E-2,1.404990070E-2,-1.771509275E-2
1.723903108E0,2.031126991E-2,1.649336144E-2,-1.878410578E-2
1.726141328E0,1.786780916E-2,1.649336144E-2,-2.015855350E-2
1.728376863E0,1.664607786E-2,1.542434748E-2,-2.626720630E-2
1.730613313E0,1.542434748E-2,2.031126991E-2,-2.748893574E-2
1.732849947E0,1.557706390E-2,2.153299935E-2,-2.871066704E-2
1.735086763E0,1.435533352E-2,2.626720630E-2,-3.115412779E-2
1.737323518E0,1.695151068E-2,2.993239649E-2,-2.977968007E-2
1.739560457E0,1.710422710E-2,3.604105115E-2,-3.222314268E-2
1.741797334E0,1.725694351E-2,4.321871698E-2,-3.466660157E-2
1.744035005E0,2.214386500E-2,4.688390717E-2,-3.222314268E-2
1.746270967E0,2.474004216E-2,5.161811411E-2,-2.962696366E-2
1.748507539E0,2.977968007E-2,5.879577994E-2,-3.084869497E-2
1.750740937E0,3.237585723E-2,6.123924255E-2,-2.962696366E-2
1.752969087E0,3.863722831E-2,6.948592514E-2,-2.825251780E-2
1.755217439E0,3.863722831E-2,7.437284291E-2,-2.458732575E-2
1.757454317E0,4.123340547E-2,8.048149943E-2,-2.458732575E-2
1.759694307E0,4.260785133E-2,8.643743396E-2,-2.199114859E-2
1.761928926E0,4.642575979E-2,9.361509979E-2,-2.076941915E-2
1.764164461E0,4.642575979E-2,9.117163718E-2,-1.954768784E-2
1.766401094E0,5.009094998E-2,9.239336848E-2,-1.954768784E-2
1.768637849E0,4.764748737E-2,9.361509979E-2,-1.832595654E-2
1.770874727E0,4.886921868E-2,9.483683109E-2,-1.466076635E-2
1.773111604E0,4.520402849E-2,9.132435173E-2,-1.466076635E-2
1.775348298E0,4.764748737E-2,9.483683109E-2,-1.343903504E-2
1.777585237E0,4.382958263E-2,8.765916526E-2,-1.099557430E-2
1.779819978E0,4.260785133E-2,8.765916526E-2,-8.552113548E-3
1.782046541E0,3.878994286E-2,8.659014851E-2,-6.108652335E-3
1.784295137E0,3.863722831E-2,7.925976813E-2,-7.483099122E-3
1.786531892E0,3.863722831E-2,7.559457421E-2,-5.039638374E-3
1.788772737E0,3.604105115E-2,6.841690838E-2,-2.596177394E-3
1.791005586E0,3.207042441E-2,5.879577994E-2,-3.970623948E-3
1.793242158E0,2.703078650E-2,5.161811411E-2,-2.748893574E-3
1.795478975E0,2.443460934E-2,4.306599870E-2,-1.527163084E-3
1.797716707E0,2.168571576E-2,3.344487399E-2,-2.901609987E-3
1.799952302E0,1.908953860E-2,2.748893574E-2,-4.581489484E-4
1.802188875E0,1.771509275E-2,1.771509275E-2,-4.581489484E-4
1.804425447E0,1.756237634E-2,9.315694682E-3,6.108652451E-4
1.806662568E0,1.237002108E-2,9.162978968E-4,-6.108652451E-4
1.808899446E0,1.359175146E-2,-2.748893574E-3,1.832595794E-3
1.811136201E0,9.773843922E-3,-9.926560335E-3,2.901609987E-3
1.813373079E0,8.399397135E-3,-1.359175146E-2,5.345070735E-3
1.815610811E0,1.313360315E-2,-1.970040426E-2,5.345070735E-3
1.817843171E0,9.468411095E-3,-2.336559631E-2,6.566801574E-3
1.820070222E0,9.315694682E-3,-2.580905706E-2,9.010262787E-3
1.822319246E0,9.162978269E-3,-3.298672289E-2,7.788531948E-3
1.824556550E0,9.162978269E-3,-3.665191308E-2,9.010262787E-3
1.826796358E0,1.160643995E-2,-3.665191308E-2,1.023199316E-2
1.829030000E0,1.145372353E-2,-4.031710699E-2,1.023199316E-2
1.831266816E0,1.145372353E-2,-4.398229718E-2,9.010262787E-3
1.833504609E0,1.267545391E-2,-4.276056588E-2,7.788531948E-3
1.835740205E0,1.404990070E-2,-4.046982154E-2,6.566801574E-3
1.837977083E0,1.420261711E-2,-3.436116874E-2,5.345070735E-3
1.840213594E0,1.664607786E-2,-3.436116874E-2,1.679879380E-3
1.842450654E0,1.679879427E-2,-2.825251780E-2,4.123340361E-3
1.844687227E0,2.183843218E-2,-2.351831272E-2,1.832595794E-3
1.846922822E0,2.306016348E-2,-1.634064503E-2,3.054326167E-3
1.849156160E0,2.336559631E-2,-7.788531948E-3,1.832595794E-3
1.851398408E0,2.458732575E-2,-4.276056774E-3,1.832595794E-3
1.853634187E0,2.474004216E-2,3.054326167E-3,7.635815418E-4
1.855871980E0,2.718350291E-2,4.276056774E-3,7.635815418E-4
1.858107637E0,2.855795063E-2,1.023199316E-2,-1.679879380E-3
1.860345003E0,2.871066704E-2,1.145372353E-2,-1.679879380E-3
1.862579561E0,3.115412779E-2,1.267545391E-2,-1.679879380E-3
1.864817781E0,3.237585723E-2,1.511891466E-2,-2.901609987E-3
1.867054353E0,3.375030309E-2,1.985312067E-2,-3.970623948E-3
1.869292573E0,3.390302137E-2,2.351831272E-2,-2.748893574E-3
1.871528047E0,3.008511290E-2,2.244929783E-2,-6.566801574E-3
1.873764924E0,2.779436857E-2,2.611448988E-2,-7.788531948E-3
1.876001436E0,2.901609987E-2,2.489275858E-2,-7.788531948E-3
1.878238252E0,2.901609987E-2,2.840523422E-2,-6.566801574E-3
1.880475007E0,2.535090782E-2,3.222314268E-2,-6.566801574E-3
1.882711580E0,2.183843218E-2,3.588833287E-2,-9.010262787E-3
1.884945710E0,1.817324013E-2,3.955352306E-2,-1.023199316E-2
1.887174226E0,1.328631863E-2,4.214970022E-2,-1.145372353E-2
1.889421846E0,1.084285788E-2,4.337143153E-2,-1.267545391E-2
1.891658662E0,8.552113548E-3,4.581489414E-2,-1.267545391E-2
1.893898226E0,7.330383174E-3,4.596760869E-2,-1.145372353E-2
1.896132295E0,4.734205548E-3,4.474587739E-2,-1.145372353E-2
1.898368867E0,3.665191587E-3,4.841107130E-2,-1.267545391E-2
1.900605623E0,3.665191587E-3,4.841107130E-2,-1.145372353E-2
1.902842439E0,-1.374446787E-3,4.734205827E-2,-9.162978269E-3
1.905080049E0,0.000000000E0,5.085453019E-2,-7.941247895E-3
1.907315889E0,-1.221730490E-3,5.329799280E-2,-4.276056774E-3
1.909552766E0,0.000000000E0,5.696318299E-2,1.985311974E-3
1.911789278E0,0.000000000E0,5.940664560E-2,5.650503561E-3
1.914026094E0,1.374446787E-3,6.414084882E-2,8.093964309E-3
1.916262849E0,3.817907767E-3,6.780604273E-2,1.053742506E-2
1.918499422E0,3.817907767E-3,6.536258012E-2,1.420261711E-2
1.920736543E0,4.886921961E-3,6.169738993E-2,2.031126991E-2
1.922974092E0,4.886921961E-3,5.925392732E-2,2.153299935E-2
1.925209993E0,3.512475174E-3,5.803219974E-2,2.641992271E-2
1.927446748E0,3.512475174E-3,5.329799280E-2,2.886338346E-2
1.929683381E0,7.024950348E-3,5.070181563E-2,3.130684420E-2
1.931921358E0,5.803219974E-3,4.841107130E-2,3.375030309E-2
1.934156831E0,3.207042580E-3,4.108068720E-2,3.375030309E-2
1.936393342E0,6.108652451E-4,3.878994286E-2,3.863722831E-2
1.938630525E0,2.901609987E-3,3.145955876E-2,3.863722831E-2
1.940868074E0,4.581489484E-4,3.023782931E-2,4.214970022E-2
1.943103792E0,-9.162978968E-4,2.535090782E-2,4.703662544E-2
1.945340425E0,-2.290744567E-3,1.939497143E-2,4.825835302E-2
1.947576814E0,-7.330383174E-3,1.343903504E-2,5.070181563E-2
1.949812593E0,-1.237002108E-2,1.114829071E-2,5.177082866E-2
1.952045320E0,-1.237002108E-2,8.704829961E-3,5.421429127E-2
1.954287324E0,-1.985312067E-2,5.192354787E-3,5.665775016E-2
1.956524385E0,-2.351831272E-2,5.192354787E-3,5.543602258E-2
1.958763216E0,-2.977968007E-2,2.901609987E-3,5.528330430E-2
1.960997468E0,-3.115412779E-2,-7.635815418E-4,5.772676691E-2
1.963234041E0,-3.726277873E-2,-4.276056774E-3,5.650503561E-2
1.965470674E0,-4.214970022E-2,-2.901609987E-3,5.390885845E-2
1.967707979E0,-4.459316283E-2,-1.679879380E-3,5.513058975E-2
1.969944612E0,-4.948008433E-2,-3.054326226E-4,5.146539584E-2
1.972181428E0,-5.070181563E-2,9.162978968E-4,5.268712714E-2
1.974418428E0,-5.436700583E-2,4.581489135E-3,5.146539584E-2
1.976655977E0,-5.558873713E-2,4.581489135E-3,5.268712714E-2
1.978891023E0,-5.803219974E-2,5.955935922E-3,5.146539584E-2
1.981126070E0,-5.925392732E-2,8.399397135E-3,5.024366826E-2
1.983364412E0,-5.665775016E-2,8.246680722E-3,5.146539584E-2
1.985601777E0,-5.665775016E-2,1.313360315E-2,5.146539584E-2
1.987839143E0,-5.543602258E-2,1.435533352E-2,5.024366826E-2
1.990075471E0,-5.039638281E-2,1.420261711E-2,5.146539584E-2
1.992312227E0,-4.795292020E-2,1.542434748E-2,4.902193695E-2
1.994549715E0,-4.795292020E-2,1.786780916E-2,4.657847434E-2
1.996785310E0,-4.169155285E-2,2.260201424E-2,5.039638281E-2
1.999022127E0,-3.909537569E-2,2.733621933E-2,5.039638281E-2
2.001258760E0,-3.283400834E-2,2.962696366E-2,4.810563847E-2
2.003496797E0,-2.428189293E-2,3.191770986E-2,4.810563847E-2
2.005732393E0,-1.802052557E-2,3.176499158E-2,4.948008433E-2
2.007966340E0,-1.191187184E-2,3.054326214E-2,4.948008433E-2
2.010191377E0,-3.359758761E-3,3.268129006E-2,5.192354694E-2
2.012429231E0,5.345070735E-3,3.375030309E-2,5.574145541E-2
2.014668001E0,1.527163107E-2,3.481931984E-2,5.467243865E-2
2.016916414E0,2.626720630E-2,3.573561832E-2,5.589416996E-2
2.019143708E0,3.375030309E-2,3.802636266E-2,5.604688451E-2
2.021392427E0,3.985895589E-2,3.680463135E-2,5.482515693E-2
2.023626070E0,4.856378585E-2,3.772092983E-2,5.238169432E-2
2.025865938E0,5.467243865E-2,3.772092983E-2,5.497787148E-2
2.028100068E0,6.078109145E-2,4.001167417E-2,5.497787148E-2
2.030337617E0,6.582073122E-2,3.985895589E-2,5.375614017E-2
2.032573274E0,6.826419383E-2,3.985895589E-2,5.268712714E-2
2.034810274E0,6.963863969E-2,4.352414981E-2,4.902193695E-2
2.037046541E0,7.819075137E-2,4.092797264E-2,4.535674304E-2
2.039283418E0,7.696902007E-2,4.337143153E-2,4.291328415E-2
2.041520112E0,7.590000331E-2,4.703662544E-2,4.046982154E-2
2.043756807E0,7.467827946E-2,5.192354694E-2,3.802636266E-2
2.045991487E0,7.605272532E-2,5.665775016E-2,3.191770986E-2
2.048220857E0,6.887505949E-2,6.047565863E-2,2.825251780E-2
2.050467012E0,6.780604273E-2,6.536258012E-2,2.336559631E-2
2.052703828E0,6.291911751E-2,7.269296050E-2,1.970040426E-2
2.054943269E0,5.696318299E-2,7.895433158E-2,1.481348183E-2
2.057177522E0,5.345070735E-2,8.750644326E-2,1.114829071E-2
2.059414338E0,5.009094998E-2,9.972374886E-2,7.483099122E-3
2.061651033E0,4.535674304E-2,1.070541367E-1,5.039638374E-3
2.063887910E0,3.940080851E-2,1.168279797E-1,3.817907767E-3
2.066125398E0,3.833179548E-2,1.278235465E-1,1.374446787E-3
2.068360994E0,3.497203439E-2,1.388191283E-1,2.596177394E-3
2.070597871E0,3.252857551E-2,1.461495161E-1,1.374446787E-3
2.072834688E0,3.161227703E-2,1.559233516E-1,3.817907767E-3
2.075072481E0,2.916881628E-2,1.620320082E-1,3.817907767E-3
2.077308015E0,3.054326214E-2,1.667662114E-1,8.704829961E-3
2.079544588E0,2.932153270E-2,1.728748679E-1,1.374446787E-2
2.081781404E0,2.947424725E-2,1.826487035E-1,1.863138936E-2
2.084018892E0,2.962696366E-2,1.861611903E-1,2.351831272E-2
2.086253633E0,2.962696366E-2,1.922698319E-1,3.084869497E-2
2.088491670E0,3.329215571E-2,1.910481006E-1,3.451388702E-2
2.090728242E0,3.558290005E-2,1.896736622E-1,4.321871698E-2
2.092962740E0,3.695734590E-2,1.908953935E-1,4.688390717E-2
2.095190401E0,3.924809024E-2,1.860084683E-1,4.932736978E-2
2.097438692E0,4.276056588E-2,1.786780804E-1,5.421429127E-2
2.099675752E0,4.627304152E-2,1.725694388E-1,5.787948146E-2
2.101916170E0,4.734205827E-2,1.664607823E-1,5.910121277E-2
2.104148897E0,4.596760869E-2,1.615738571E-1,6.154467165E-2
2.106385713E0,4.825835302E-2,1.530217379E-1,6.154467165E-2
2.108622285E0,4.581489414E-2,1.507309973E-1,6.261368841E-2
2.110859346E0,4.199698567E-2,1.459967941E-1,6.017022580E-2
2.113095308E0,4.062253982E-2,1.386664063E-1,5.772676691E-2
2.115330232E0,4.184427112E-2,1.325577646E-1,5.650503561E-2
2.117569490E0,3.680463135E-2,1.266018152E-1,5.268712714E-2
2.119807100E0,3.420845419E-2,1.194241568E-1,5.146539584E-2
2.122043489E0,2.901609987E-2,1.098030284E-1,4.886921868E-2
2.124279512E0,2.519819140E-2,1.026253626E-1,4.886921868E-2
2.126516084E0,2.153299935E-2,9.896016866E-2,4.749477282E-2
2.128753206E0,1.389718428E-2,9.193521738E-2,4.627304152E-2
2.130990266E0,1.007927675E-2,8.460483700E-2,4.856378585E-2
2.133226777E0,6.261368748E-3,7.987063378E-2,5.100724846E-2
2.135463655E0,5.039638374E-3,7.620543987E-2,5.345070735E-2
2.137701265E0,-1.221730490E-3,7.513642311E-2,5.222897977E-2
2.139936677E0,0.000000000E0,7.269296050E-2,5.345070735E-2
2.142173494E0,-3.817907767E-3,6.673702598E-2,5.451972410E-2
2.144410066E0,-7.635815535E-3,6.322455406E-2,5.696318299E-2
2.146648164E0,-1.007927675E-2,6.078109145E-2,5.696318299E-2
2.148881258E0,-1.267545391E-2,6.078109145E-2,6.062837690E-2
2.151110567E0,-1.634064503E-2,5.726861581E-2,6.291911751E-2
2.153357088E0,-1.893682219E-2,5.726861581E-2,6.536258012E-2
2.155594881E0,-2.382374369E-2,5.742133409E-2,6.780604273E-2
2.157832978E0,-2.626720630E-2,5.864306539E-2,7.024950534E-2
2.160067415E0,-2.504547499E-2,5.619960278E-2,7.147123665E-2
2.162304109E0,-2.886338346E-2,5.757404864E-2,7.391469181E-2
2.164540742E0,-2.886338346E-2,5.513058975E-2,7.635815442E-2
2.166777559E0,-3.130684420E-2,5.635231733E-2,7.880161703E-2
2.169014253E0,-3.390302137E-2,5.390885845E-2,8.246681094E-2
2.171251313E0,-3.619376570E-2,5.772676691E-2,8.613199741E-2
2.173489290E0,-3.619376570E-2,6.123924255E-2,8.613199741E-2
2.175724885E0,-4.230241850E-2,6.139195710E-2,9.086620808E-2
2.177958956E0,-4.352414981E-2,6.627888232E-2,9.330966324E-2
2.180186800E0,-4.108068720E-2,6.872233748E-2,9.834930301E-2
2.182434480E0,-4.841107130E-2,7.238753140E-2,1.018617824E-1
2.184671541E0,-4.718934000E-2,7.483099401E-2,1.056796908E-1
2.186911103E0,-5.314527452E-2,7.987063378E-2,1.079704314E-1
2.189145356E0,-5.803219974E-2,8.597928286E-2,1.116356254E-1
2.191383027E0,-5.940664560E-2,8.231408894E-2,1.116356254E-1
2.193618562E0,-6.291911751E-2,8.491026610E-2,1.140790880E-1
2.195855622E0,-6.780604273E-2,8.857546002E-2,1.177442744E-1
2.198093355E0,-7.284568250E-2,8.628471941E-2,1.177442744E-1
2.200328523E0,-7.651086897E-2,8.506298810E-2,1.175915599E-1
2.202565401E0,-8.155050874E-2,8.155050874E-2,1.188132912E-1
2.204801790E0,-8.277224004E-2,7.925976813E-2,1.200350225E-1
2.207039399E0,-8.659014851E-2,7.681630552E-2,1.224784851E-1
2.209277070E0,-9.040805697E-2,7.086037099E-2,1.235474944E-1
2.211512422E0,-9.544769675E-2,6.368270516E-2,1.211040318E-1
2.213749238E0,-9.682214260E-2,5.879577994E-2,1.211040318E-1
2.215985933E0,-1.017090604E-1,5.528330430E-2,1.172861308E-1
2.218223604E0,-1.018617824E-1,5.161811411E-2,1.185078546E-1
2.220459443E0,-1.056796908E-1,4.321871698E-2,1.136209369E-1
2.222696199E0,-1.107193232E-1,3.726277873E-2,1.122464910E-1
2.224932954E0,-1.096503139E-1,2.993239649E-2,1.110247597E-1
2.227171113E0,-1.145372316E-1,2.886338346E-2,1.085812971E-1
2.229406404E0,-1.133155003E-1,2.764165215E-2,1.061378345E-1
2.231643037E0,-1.133155003E-1,2.519819140E-2,1.049161032E-1
2.233878084E0,-1.108720452E-1,2.519819140E-2,1.061378345E-1
2.236110994E0,-1.108720452E-1,2.626720630E-2,1.036943719E-1
2.238353242E0,-1.084285825E-1,2.748893574E-2,1.024726480E-1
2.240589998E0,-1.033889428E-1,3.100141138E-2,1.036943719E-1
2.242828279E0,-9.483683109E-2,3.084869497E-2,1.062905490E-1
2.245064607E0,-8.857546002E-2,3.191770986E-2,1.075122803E-1
2.247300020E0,-8.368854225E-2,3.787364438E-2,1.101084575E-1
2.249537141E0,-7.742717117E-2,4.031710699E-2,1.125519201E-1
2.251773653E0,-6.887505949E-2,4.123340547E-2,1.151480973E-1
2.254010774E0,-6.017022580E-2,4.352414981E-2,1.212567538E-1
2.256247224E0,-4.917465150E-2,4.337143153E-2,1.238529310E-1
2.258483797E0,-3.924809024E-2,4.321871698E-2,1.262963861E-1
2.260720857E0,-3.313944116E-2,4.184427112E-2,1.325577646E-1
2.262956697E0,-2.336559631E-2,3.924809024E-2,1.350012124E-1
2.265187227E0,-1.481348183E-2,3.787364438E-2,1.388191283E-1
2.267430879E0,-8.704829961E-3,3.649919853E-2,1.400408596E-1
2.269667451E0,-1.527163113E-4,3.268129006E-2,1.424843222E-1
2.271906282E0,9.621127509E-3,2.886338346E-2,1.414152980E-1
2.274141389E0,9.468411095E-3,2.764165215E-2,1.438587606E-1
2.276378145E0,1.679879427E-2,2.382374369E-2,1.426370293E-1
2.278614961E0,1.679879427E-2,1.893682219E-2,1.414152980E-1
2.280852449E0,1.924225502E-2,1.771509275E-2,1.414152980E-1
2.283087984E0,2.168571576E-2,1.771509275E-2,1.389718503E-1
2.285324617E0,1.924225502E-2,1.893682219E-2,1.389718503E-1
2.287561494E0,1.679879427E-2,2.260201424E-2,1.389718503E-1
2.289799531E0,1.572977938E-2,2.871066704E-2,1.389718503E-1
2.292035188E0,1.221730467E-2,3.481931984E-2,1.377501190E-1
2.294272004E0,8.552113548E-3,4.214970022E-2,1.389718503E-1
2.296508760E0,5.039638374E-3,5.192354694E-2,1.401935667E-1
2.298743562E0,-9.162978968E-4,6.062837690E-2,1.426370293E-1
2.300971224E0,-5.650503561E-3,6.551529467E-2,1.414152980E-1
2.303223054E0,-1.420261711E-2,7.177666575E-2,1.438587606E-1
2.305455232E0,-1.908953860E-2,7.544185966E-2,1.463022232E-1
2.307695284E0,-2.138028294E-2,7.925976813E-2,1.438587606E-1
2.309927827E0,-3.130684420E-2,8.307767659E-2,1.498146951E-1
2.312165681E0,-4.230241850E-2,8.689557761E-2,1.498146951E-1
2.314402559E0,-4.841107130E-2,8.827003092E-2,1.521054506E-1
2.316640352E0,-5.833763257E-2,8.597928286E-2,1.533271819E-1
2.318875886E0,-6.444628537E-2,8.979719132E-2,1.557706445E-1
2.321112520E0,-7.299839705E-2,8.994990587E-2,1.580613852E-1
2.323349031E0,-8.292495459E-2,8.888089657E-2,1.592831165E-1
2.325586152E0,-9.407325089E-2,8.674286306E-2,1.627955884E-1
2.327820039E0,-1.027780771E-1,8.323039114E-2,1.663080603E-1
2.330046968E0,-1.114829108E-1,8.338310570E-2,1.687515229E-1
2.332293184E0,-1.262963861E-1,8.124507964E-2,1.698205322E-1
2.334534151E0,-1.337794960E-1,7.895433158E-2,1.747074574E-1
2.336772920E0,-1.437060535E-1,7.437284291E-2,1.806633919E-1
2.339007417E0,-1.524108797E-1,7.208210230E-2,1.853975952E-1
2.341243074E0,-1.598939747E-1,6.856962293E-2,1.927279830E-1
2.343479890E0,-1.698205322E-1,6.627888232E-2,1.950187236E-1
2.345716768E0,-1.809688359E-1,6.047565863E-2,1.999056488E-1
2.347953584E0,-1.860084683E-1,5.574145541E-2,2.034181207E-1
2.350190645E0,-1.974621862E-1,4.627304152E-2,2.083050460E-1
2.352427949E0,-2.025018334E-1,3.909537569E-2,2.130392492E-1
2.354663789E0,-2.125810981E-1,2.947424725E-2,2.177734673E-1
2.356900545E0,-2.225076705E-1,2.367102914E-2,2.189951837E-1
2.359137178E0,-2.312124968E-1,1.893682219E-2,2.237294018E-1
2.361374910E0,-2.400700450E-1,9.468411095E-3,2.260201424E-1
2.363610567E0,-2.551889420E-1,-4.886921961E-3,2.295326144E-1
2.365846772E0,-2.651155293E-1,-8.246680722E-3,2.356412709E-1
2.368080781E0,-2.764165103E-1,-1.527163107E-2,2.354885489E-1
2.370322053E0,-2.877175212E-1,-2.489275858E-2,2.402227521E-1
2.372557832E0,-3.039054573E-1,-3.298672289E-2,2.449569702E-1
2.374795504E0,-3.176499307E-1,-3.878994286E-2,2.484694421E-1
2.377030916E0,-3.324634135E-1,-4.581489414E-2,2.495384514E-1
2.379267732E0,-3.484986126E-1,-4.795292020E-2,2.506074607E-1
2.381504548E0,-3.634648323E-1,-5.497787148E-2,2.528982162E-1
2.383741365E0,-3.808744848E-1,-6.062837690E-2,2.515237629E-1
2.385978303E0,-3.969096839E-1,-6.032294407E-2,2.525927722E-1
2.388216035E0,-4.091269970E-1,-6.368270516E-2,2.499966025E-1
2.390451631E0,-4.276056588E-1,-6.459899992E-2,2.486221492E-1
2.392688447E0,-4.425718784E-1,-6.918048859E-2,2.448042482E-1
2.394921053E0,-4.511239827E-1,-7.131851465E-2,2.374738604E-1
2.397147127E0,-4.561636150E-1,-7.620543987E-2,2.336559594E-1
2.399398347E0,-4.647157490E-1,-8.078692853E-2,2.249511331E-1
2.401635164E0,-4.709770977E-1,-8.307767659E-2,2.200642079E-1
2.403875764E0,-4.734205604E-1,-8.307767659E-2,2.151772827E-1
2.406110139E0,-4.746423066E-1,-8.429940045E-2,2.115120888E-1
2.408345674E0,-4.758640230E-1,-8.552113175E-2,2.064724565E-1
2.410582307E0,-4.758640230E-1,-8.674286306E-2,2.003637999E-1
2.412818697E0,-4.659374654E-1,-8.689557761E-2,2.005165219E-1
2.415055513E0,-4.608978331E-1,-8.338310570E-2,1.968513280E-1
2.417292268E0,-4.523457289E-1,-8.353582025E-2,1.933388561E-1
2.419529512E0,-4.411974251E-1,-8.246681094E-2,1.921171248E-1
2.421766389E0,-4.312708676E-1,-8.261952549E-2,1.910481006E-1
2.424003938E0,-4.166100919E-1,-8.414668590E-2,1.887573600E-1
2.426239412E0,-4.056145251E-1,-8.689557761E-2,1.875356287E-1
2.428476289E0,-3.882048726E-1,-8.231408894E-2,1.852448881E-1
2.430713045E0,-3.772092760E-1,-8.613199741E-2,1.841758788E-1
2.432947663E0,-3.610213697E-1,-8.292495459E-2,1.806633919E-1
2.435174470E0,-3.486513495E-1,-7.941248268E-2,1.769981980E-1
2.437423006E0,-3.376557529E-1,-8.093964309E-2,1.771509200E-1
2.439659944E0,-3.251330256E-1,-7.620543987E-2,1.711949855E-1
2.441900850E0,-3.164281845E-1,-7.162395120E-2,1.675297916E-1
2.444130281E0,-3.039054573E-1,-6.337726861E-2,1.627955884E-1
2.446358064E0,-2.927571833E-1,-5.742133409E-2,1.629483104E-1
2.448606294E0,-2.852740586E-1,-5.039638281E-2,1.618792862E-1
2.450843477E0,-2.776382565E-1,-4.321871698E-2,1.606575549E-1
2.453083284E0,-2.738203406E-1,-3.237585723E-2,1.595885456E-1
2.455317109E0,-2.686280012E-1,-2.153299935E-2,1.595885456E-1
2.457553926E0,-2.635883391E-1,-1.557706390E-2,1.572978050E-1
2.459791475E0,-2.585487068E-1,-1.084285788E-2,1.536326110E-1
2.462027315E0,-2.533563673E-1,-3.665191587E-3,1.511891484E-1
2.464264070E0,-2.521346211E-1,-1.221730490E-3,1.452332139E-1
2.466500215E0,-2.521346211E-1,-2.443460980E-3,1.377501190E-1
2.468737520E0,-2.483167201E-1,-3.665191587E-3,1.342376322E-1
2.470974336E0,-2.470949888E-1,-7.330383174E-3,1.255328059E-1
2.473211213E0,-2.422080636E-1,-1.237002108E-2,1.183551401E-1
2.475447969E0,-2.360994220E-1,-1.725694351E-2,1.110247597E-1
2.477685457E0,-2.362521291E-1,-2.458732575E-2,1.035416573E-1
2.479921052E0,-2.313652188E-1,-3.069597855E-2,9.498954564E-2
2.482157869E0,-2.241875380E-1,-3.940080851E-2,9.025534242E-2
2.484394258E0,-2.180788964E-1,-4.673119262E-2,8.414668590E-2
2.486631563E0,-2.145664245E-1,-5.299255997E-2,8.170322329E-2
2.488868135E0,-2.072360367E-1,-6.154467165E-2,7.437284291E-2
2.491105012E0,-1.999056488E-1,-6.291911751E-2,6.948592514E-2
2.493341951E0,-1.913535446E-1,-6.551529467E-2,6.582073122E-2
2.495579317E0,-1.863138974E-1,-6.688974798E-2,6.475171447E-2
2.497815156E0,-1.802052408E-1,-6.688974798E-2,6.230825558E-2
2.500051912E0,-1.727221459E-1,-6.582073122E-2,5.986479297E-2
2.502288545E0,-1.617265791E-1,-6.612616032E-2,5.879577994E-2
2.504526277E0,-1.530217379E-1,-6.505715102E-2,5.268712714E-2
2.506761873E0,-1.467603743E-1,-6.398813426E-2,5.039638281E-2
2.508998750E0,-1.406517178E-1,-6.291911751E-2,4.673119262E-2
2.511232698E0,-1.333213449E-1,-6.658431143E-2,4.062253982E-2
2.513462007E0,-1.233947799E-1,-6.444628537E-2,3.833179548E-2
2.515709443E0,-1.159116775E-1,-6.459899992E-2,3.100141138E-2
2.517945772E0,-1.085812971E-1,-6.475171447E-2,2.871066704E-2
2.520185151E0,-9.987647086E-2,-6.490442902E-2,2.504547499E-2
2.522419038E0,-9.239336848E-2,-6.261368841E-2,2.153299935E-2
2.524655977E0,-8.491026610E-2,-6.032294407E-2,1.786780916E-2
2.526892732E0,-7.880161703E-2,-5.803219974E-2,1.786780916E-2
2.529127168E0,-6.994406879E-2,-5.085453019E-2,1.557706390E-2
2.531357332E0,-6.261368841E-2,-4.856378585E-2,1.695151068E-2
2.533602754E0,-5.497787148E-2,-4.153883830E-2,1.695151068E-2
2.535839815E0,-4.627304152E-2,-3.436116874E-2,1.832595654E-2
2.538078584E0,-4.260785133E-2,-3.207042441E-2,1.710422710E-2
2.540313203E0,-3.390302137E-2,-2.977968007E-2,1.970040426E-2
2.542549715E0,-2.886338346E-2,-2.626720630E-2,2.214386500E-2
2.544786592E0,-2.397646010E-2,-2.626720630E-2,2.580905706E-2
2.547023652E0,-1.664607786E-2,-2.641992271E-2,3.084869497E-2
2.549261201E0,-1.420261711E-2,-2.412917651E-2,3.207042441E-2
2.551496797E0,-5.650503561E-3,-3.145955876E-2,3.329215571E-2
2.553733674E0,-7.635815418E-4,-3.405573592E-2,3.466660157E-2
2.555970430E0,2.748893574E-3,-3.772092983E-2,3.833179548E-2
2.558207307E0,8.857546374E-3,-4.031710699E-2,3.955352306E-2
2.560441072E0,9.926560335E-3,-4.642575979E-2,4.199698567E-2
2.562668611E0,1.481348183E-2,-4.886921868E-2,4.444044828E-2
2.564914704E0,2.092213556E-2,-5.268712714E-2,4.810563847E-2
2.567143708E0,2.443460934E-2,-5.757404864E-2,5.192354694E-2
2.569395723E0,2.550362423E-2,-6.246097013E-2,5.436700583E-2
2.571627351E0,2.794708498E-2,-6.612616032E-2,5.681046844E-2
2.573867159E0,3.145955876E-2,-6.872233748E-2,6.047565863E-2
2.576101534E0,3.512475267E-2,-7.116580009E-2,6.291911751E-2
2.578337800E0,3.878994286E-2,-7.483099401E-2,6.780604273E-2
2.580574129E0,4.123340547E-2,-7.498370856E-2,6.780604273E-2
2.582811006E0,4.474587739E-2,-7.742717117E-2,7.269296050E-2
2.585048982E0,4.856378585E-2,-7.620543987E-2,7.406741381E-2
2.587284700E0,5.222897977E-2,-7.635815442E-2,7.773260027E-2
2.589521516E0,5.345070735E-2,-7.269296050E-2,8.139779419E-2
2.591755220E0,5.222897977E-2,-7.391469181E-2,8.384125680E-2
2.593980928E0,5.833763257E-2,-7.284568250E-2,8.872817457E-2
2.596217318E0,5.589416996E-2,-6.918048859E-2,9.361509979E-2
2.598457918E0,5.604688451E-2,-6.062837690E-2,9.254608303E-2
2.600708040E0,5.115996301E-2,-5.818491429E-2,9.605856240E-2
2.602945772E0,5.009094998E-2,-5.329799280E-2,9.498954564E-2
2.605181306E0,4.886921868E-2,-4.841107130E-2,9.987647086E-2
2.607415437E0,4.520402849E-2,-4.581489414E-2,9.987647086E-2
2.609651582E0,3.802636266E-2,-4.092797264E-2,9.850201756E-2
2.611888887E0,3.558290005E-2,-3.726277873E-2,9.728029370E-2
2.614125642E0,3.069597855E-2,-3.466660157E-2,9.728029370E-2
2.616362276E0,2.474004216E-2,-2.977968007E-2,9.728029370E-2
2.618599092E0,1.985312067E-2,-2.840523422E-2,9.605856240E-2
2.620836824E0,9.926560335E-3,-2.947424725E-2,9.346238524E-2
2.623072481E0,5.039638374E-3,-2.565634064E-2,9.468411654E-2
2.625309358E0,-3.359758761E-3,-1.939497143E-2,9.330966324E-2
2.627545869E0,-9.468411095E-3,-1.817324013E-2,9.330966324E-2
2.629782930E0,-1.572977938E-2,-1.679879427E-2,9.330966324E-2
2.632016816E0,-2.306016348E-2,-1.542434748E-2,8.949175477E-2
2.634245515E0,-3.405573592E-2,-1.404990070E-2,9.193521738E-2
2.636493074E0,-4.382958263E-2,-1.252273750E-2,9.178250283E-2
2.638730623E0,-4.886921868E-2,-1.496619824E-2,9.056077152E-2
2.640968904E0,-5.497787148E-2,-1.114829071E-2,9.178250283E-2
2.643203096E0,-6.215553731E-2,-6.108652335E-3,9.162978828E-2
2.645439912E0,-6.841690838E-2,-8.399397135E-3,9.162978828E-2
2.647677766E0,-7.208210230E-2,-7.177666761E-3,9.407325089E-2
2.649913545E0,-7.696902007E-2,-2.290744567E-3,9.407325089E-2
2.652150117E0,-8.552113175E-2,2.748893574E-3,9.392052889E-2
2.654386934E0,-8.781187981E-2,5.192354787E-3,9.636399150E-2
2.656624666E0,-9.514226019E-2,1.267545391E-2,1.000291854E-1
2.658860322E0,-1.012509167E-1,1.649336144E-2,1.012509167E-1
2.661094698E0,-1.036943719E-1,1.893682219E-2,1.012509167E-1
2.663323885E0,-1.072068512E-1,2.504547499E-2,1.024726480E-1
2.665570527E0,-1.131627858E-1,3.359758854E-2,1.073595658E-1
2.667807344E0,-1.180497110E-1,3.985895589E-2,1.073595658E-1
2.670046540E0,-1.165225431E-1,5.192354694E-2,1.061378345E-1
2.672280977E0,-1.201877370E-1,5.681046844E-2,1.085812971E-1
2.674518526E0,-1.261436790E-1,6.429356337E-2,1.085812971E-1
2.676754304E0,-1.308778822E-1,7.773260027E-2,1.073595658E-1
2.678990938E0,-1.317941695E-1,8.628471941E-2,1.073595658E-1
2.681227449E0,-1.328631938E-1,9.590584040E-2,1.049161032E-1
2.683464326E0,-1.388191283E-1,1.046106741E-1,1.049161032E-1
2.685701387E0,-1.386664063E-1,1.142318025E-1,1.012509167E-1
2.687937959E0,-1.397354305E-1,1.203404516E-1,9.896016866E-2
2.690175081E0,-1.434006095E-1,1.227839142E-1,9.514226019E-2
2.692412507E0,-1.408044398E-1,1.252273768E-1,9.162978828E-2
2.694648103E0,-1.430951804E-1,1.301143020E-1,8.674286306E-2
2.696884736E0,-1.455386430E-1,1.313360333E-1,8.292495459E-2
2.699121004E0,-1.478293836E-1,1.362229437E-1,7.925976813E-2
2.701356355E0,-1.453859210E-1,1.374446750E-1,7.559457421E-2
2.703595003E0,-1.427897513E-1,1.411098689E-1,6.841690838E-2
2.705832063E0,-1.452332139E-1,1.435533315E-1,6.215553731E-2
2.708069795E0,-1.424843222E-1,1.482875347E-1,5.619960278E-2
2.710303437E0,-1.350012124E-1,1.518000066E-1,5.253441259E-2
2.712530183E0,-1.374446750E-1,1.518000066E-1,4.398229718E-2
2.714778657E0,-1.336267740E-1,1.542434692E-1,3.543018550E-2
2.717015596E0,-1.285871267E-1,1.565342247E-1,2.565634064E-2
2.719256380E0,-1.235474944E-1,1.637118906E-1,1.970040426E-2
2.721489229E0,-1.160643995E-1,1.660026312E-1,1.114829071E-2
2.723725801E0,-1.098030284E-1,1.658499092E-1,3.817907767E-3
2.725962617E0,-1.035416573E-1,1.718058437E-1,-3.359758761E-3
2.728200471E0,-9.483683109E-2,1.740965992E-1,-9.468411095E-3
2.730436433E0,-8.857546002E-2,1.788308024E-1,-1.420261711E-2
2.732672578E0,-7.971791178E-2,1.835650057E-1,-2.153299935E-2
2.734909334E0,-6.979135424E-2,1.857030392E-1,-2.504547499E-2
2.737146089E0,-5.619960278E-2,1.890627891E-1,-3.100141138E-2
2.739383088E0,-4.871650413E-2,1.901318133E-1,-3.588833287E-2
2.741619783E0,-3.878994286E-2,1.912008226E-1,-4.062253982E-2
2.743856660E0,-2.764165215E-2,1.922698319E-1,-4.550946131E-2
2.746094209E0,-1.908953860E-2,1.921171248E-1,-5.024366826E-2
2.748329988E0,-9.162978269E-3,1.918116808E-1,-5.635231733E-2
2.750566621E0,7.635815418E-4,1.916589737E-1,-6.230825558E-2
2.752803194E0,6.872233935E-3,1.927279830E-1,-6.841690838E-2
2.755040193E0,1.450804994E-2,1.974621862E-1,-7.452555746E-2
2.757276887E0,1.817324013E-2,1.974621862E-1,-8.292495459E-2
2.759513887E0,2.214386500E-2,2.058615834E-1,-9.147707373E-2
2.761750642E0,2.474004216E-2,2.081523389E-1,-9.758572280E-2
2.763988008E0,2.977968007E-2,2.116648108E-1,-1.049161032E-1
2.766220796E0,3.222314268E-2,2.128865421E-1,-1.110247597E-1
2.768448640E0,3.375030309E-2,2.202169150E-1,-1.157589629E-1
2.770696992E0,3.512475267E-2,2.286163121E-1,-1.206458881E-1
2.772934053E0,3.894266114E-2,2.357939780E-1,-1.255328059E-1
2.775173921E0,3.665191308E-2,2.419026345E-1,-1.316414624E-1
2.777407930E0,3.817907721E-2,2.528982162E-1,-1.327104717E-1
2.779644502E0,3.970624134E-2,2.661845386E-1,-1.363756657E-1
2.781881990E0,4.123340547E-2,2.782491148E-1,-1.388191283E-1
2.784117525E0,4.260785133E-2,2.855795026E-1,-1.411098689E-1
2.786354463E0,4.535674304E-2,2.976440787E-1,-1.435533315E-1
2.788591279E0,4.550946131E-2,3.084869385E-1,-1.459967941E-1
2.790829133E0,4.825835302E-2,3.217732608E-1,-1.482875347E-1
2.793064912E0,4.978551716E-2,3.327688277E-1,-1.482875347E-1
2.795298493E0,5.115996301E-2,3.448334336E-1,-1.481348276E-1
2.797526277E0,5.146539584E-2,3.593414724E-1,-1.518000066E-1
2.799775789E0,5.299255997E-2,3.701843321E-1,-1.554652005E-1
2.802011751E0,5.207626149E-2,3.824016452E-1,-1.589776874E-1
2.804251741E0,5.345070735E-2,3.920227587E-1,-1.614211351E-1
2.806485139E0,5.604688451E-2,3.981314301E-1,-1.601994038E-1
2.808722139E0,5.742133409E-2,4.065308273E-1,-1.576032341E-1
2.810958650E0,6.017022580E-2,4.163046777E-1,-1.588249654E-1
2.813195466E0,5.894849449E-2,4.234823287E-1,-1.563815027E-1
2.815432222E0,6.139195710E-2,4.247040749E-1,-1.514945775E-1
2.817669588E0,6.261368841E-2,4.259257913E-1,-1.453859210E-1
2.819905427E0,6.872233748E-2,4.233296216E-1,-1.427897513E-1
2.822142305E0,6.734789163E-2,4.184426963E-1,-1.366810948E-1
2.824378938E0,7.345654815E-2,4.159992337E-1,-1.354593635E-1
2.826615938E0,7.452555746E-2,4.062253833E-1,-1.330159009E-1
2.828852571E0,7.559457421E-2,3.964515328E-1,-1.305724531E-1
2.831086579E0,7.528914511E-2,3.880521357E-1,-1.295034289E-1
2.833314363E0,7.742717117E-2,3.733913898E-1,-1.233947799E-1
2.835563692E0,7.360926270E-2,3.637702465E-1,-1.209513173E-1
2.837799470E0,7.819075137E-2,3.527746797E-1,-1.172861308E-1
2.840039339E0,7.788532227E-2,3.370448947E-1,-1.162171140E-1
2.842272859E0,7.391469181E-2,3.262020350E-1,-1.125519201E-1
2.844509431E0,7.864890248E-2,3.152064681E-1,-1.113301888E-1
2.846746309E0,7.590000331E-2,3.017674387E-1,-1.114829108E-1
2.848983369E0,7.696902007E-2,2.933680415E-1,-1.065959856E-1
2.851220552E0,8.155050874E-2,2.774855494E-1,-1.029307917E-1
2.853458040E0,8.124507964E-2,2.617557645E-1,-9.926560521E-2
2.855693513E0,8.200865984E-2,2.434297949E-1,-9.330966324E-2
2.857930086E0,8.674286306E-2,2.348776907E-1,-8.964447677E-2
2.860168306E0,8.765916526E-2,2.179261744E-1,-8.597928286E-2
2.862409700E0,8.842274547E-2,2.032654136E-1,-8.109235764E-2
2.864637910E0,8.933904022E-2,1.875356287E-1,-7.880161703E-2
2.866877168E0,9.147707373E-2,1.728748679E-1,-7.269296050E-2
2.869112580E0,9.132435173E-2,1.655444801E-1,-7.269296050E-2
2.871352448E0,8.994990587E-2,1.595885456E-1,-6.780604273E-2
2.873587556E0,9.224065393E-2,1.485929638E-1,-6.536258012E-2
2.875823884E0,8.827003092E-2,1.414152980E-1,-6.185010448E-2
2.878060457E0,8.689557761E-2,1.340849251E-1,-6.062837690E-2
2.880297517E0,8.445212245E-2,1.305724531E-1,-5.940664560E-2
2.882534395E0,8.307767659E-2,1.269072592E-1,-5.696318299E-2
2.884770967E0,8.185594529E-2,1.281289905E-1,-5.329799280E-2
2.887008088E0,8.063421398E-2,1.270599663E-1,-5.085453019E-2
2.889245820E0,7.696902007E-2,1.282816976E-1,-4.978551716E-2
2.891481416E0,7.086037099E-2,1.333213449E-1,-4.734205827E-2
2.893717988E0,6.841690838E-2,1.357648075E-1,-4.367686436E-2
2.895954500E0,6.719517708E-2,1.369865239E-1,-4.001167417E-2
2.898191499E0,5.986479297E-2,1.395827085E-1,-3.512475267E-2
2.900427949E0,5.619960278E-2,1.456913650E-1,-3.268129006E-2
2.902664949E0,5.131268129E-2,1.469130963E-1,-3.268129006E-2
2.904901826E0,4.398229718E-2,1.531744599E-1,-2.916881628E-2
2.907139680E0,3.924809024E-2,1.580613852E-1,-2.550362423E-2
2.909375215E0,3.313944116E-2,1.618792862E-1,-2.428189293E-2
2.911612092E0,2.703078650E-2,1.656972021E-1,-2.428189293E-2
2.913848543E0,2.092213556E-2,1.693623960E-1,-2.550362423E-2
2.916085359E0,1.374446787E-2,1.756237596E-1,-2.565634064E-2
2.918321870E0,6.414085161E-3,1.818851233E-1,-2.809980139E-2
2.920557771E0,-4.581489135E-3,1.881465018E-1,-2.809980139E-2
2.922793000E0,-9.315694682E-3,1.954768747E-1,-2.932153270E-2
2.925033662E0,-1.664607786E-2,1.980730593E-1,-3.069597855E-2
2.927269014E0,-2.275473066E-2,2.006692290E-1,-3.191770986E-2
2.929506319E0,-3.359758854E-2,2.057088763E-1,-3.329215571E-2
2.931742586E0,-3.955352306E-2,2.167044431E-1,-3.329215571E-2
2.933980440E0,-4.581489414E-2,2.156354338E-1,-3.207042441E-2
2.936216096E0,-5.421429127E-2,2.231185287E-1,-3.207042441E-2
2.938452852E0,-6.154467165E-2,2.244929820E-1,-3.222314268E-2
2.940689668E0,-6.902777404E-2,2.257147133E-1,-2.977968007E-2
2.942927461E0,-7.635815442E-2,2.295326144E-1,-2.733621933E-2
2.945160188E0,-8.231408894E-2,2.357939780E-1,-2.489275858E-2
2.947388338E0,-9.330966324E-2,2.444988191E-1,-2.260201424E-2
2.949636140E0,-9.941831976E-2,2.493857294E-1,-2.015855350E-2
2.951873262E0,-1.116356254E-1,2.545780838E-1,-1.527163107E-2
2.954112947E0,-1.175915599E-1,2.619084716E-1,-1.420261711E-2
2.956346895E0,-1.275181174E-1,2.620611787E-1,-1.175915636E-2
2.958583711E0,-1.372919679E-1,2.635883391E-1,-9.468411095E-3
2.960821199E0,-1.446223408E-1,2.660318017E-1,-7.024950348E-3
2.963056795E0,-1.533271819E-1,2.674062550E-1,-5.803219974E-3
2.965293611E0,-1.618792862E-1,2.700024247E-1,-3.512475174E-3
2.967530000E0,-1.690569520E-1,2.762638032E-1,-2.290744567E-3
2.969767366E0,-1.777617931E-1,2.739730477E-1,1.374446787E-3
2.972004121E0,-1.840231568E-1,2.716823220E-1,4.886921961E-3
2.974240754E0,-1.889100820E-1,2.730567753E-1,7.330383174E-3
2.976477754E0,-1.976149082E-1,2.719877362E-1,8.399397135E-3
2.978715242E0,-2.063197345E-1,2.696970105E-1,1.084285788E-2
2.980948519E0,-2.112066597E-1,2.661845386E-1,7.177666761E-3
2.983178132E0,-2.199114859E-1,2.614503205E-1,9.468411095E-3
2.985423982E0,-2.322815061E-1,2.568688393E-1,4.428773187E-3
2.987661043E0,-2.434297949E-1,2.559525371E-1,3.054326167E-3
2.989900056E0,-2.582432926E-1,2.525927722E-1,4.581489484E-4
2.992134736E0,-2.681698501E-1,2.490803003E-1,-7.635815418E-4
2.994371553E0,-2.842050493E-1,2.444988191E-1,-9.162978968E-4
2.996609102E0,-2.977968156E-1,2.411390543E-1,-3.512475174E-3
2.998844636E0,-3.113885522E-1,2.426662147E-1,-7.330383174E-3
3.001081453E0,-3.260493279E-1,2.478585690E-1,-9.926560335E-3
3.003318086E0,-3.394883573E-1,2.516764700E-1,-9.926560335E-3
3.005553682E0,-3.564398587E-1,2.617557645E-1,-1.130100712E-2
3.007779023E0,-3.698789179E-1,2.704605758E-1,-1.130100712E-2
3.010014070E0,-3.831652105E-1,2.840523422E-1,-1.267545391E-2
3.012250276E0,-3.962988257E-1,3.013092875E-1,-9.010262787E-3
3.014490205E0,-4.069889784E-1,3.222314119E-1,-6.566801574E-3
3.016741609E0,-4.199698567E-1,3.466660380E-1,-5.345070735E-3
3.018978060E0,-4.256203473E-1,3.747658134E-1,-4.581489484E-4
3.021215669E0,-4.361577928E-1,4.016439021E-1,4.581489135E-3
3.023448884E0,-4.468479156E-1,4.260784984E-1,1.069014147E-2
3.025685518E0,-4.575380683E-1,4.457789063E-1,1.802052557E-2
3.027922334E0,-4.647157490E-1,4.604396820E-1,2.168571576E-2
3.030159395E0,-4.731151462E-1,4.715879560E-1,2.779436857E-2
3.032396943E0,-4.815145433E-1,4.825835526E-1,3.375030309E-2
3.034632539E0,-4.851797223E-1,4.874704778E-1,3.985895589E-2
3.036869356E0,-4.877758920E-1,4.876231849E-1,4.718934000E-2
3.039105867E0,-4.940372705E-1,4.816672504E-1,5.696318299E-2
3.041342744E0,-4.966334403E-1,4.755585790E-1,6.307183951E-2
3.043579561E0,-4.920519590E-1,4.610505402E-1,6.795875728E-2
3.045816377E0,-4.937318265E-1,4.463897645E-1,7.757988572E-2
3.048051423E0,-4.929682612E-1,4.257730842E-1,8.857546002E-2
3.050282625E0,-4.909829497E-1,4.027129114E-1,9.575312585E-2
3.052526277E0,-4.879286289E-1,3.772092760E-1,1.043052375E-1
3.054763154E0,-4.799873531E-1,3.442225754E-1,1.177442744E-1
3.057001985E0,-4.735732675E-1,3.040581644E-1,1.249219403E-1
3.059236848E0,-4.647157490E-1,2.553416789E-1,1.296561509E-1
3.061473604E0,-4.558582008E-1,2.078468949E-1,1.382082552E-1
3.063710115E0,-4.445571899E-1,1.603521258E-1,1.404990107E-1
3.065947236E0,-4.416555762E-1,1.201877370E-1,1.415680200E-1
3.068184785E0,-4.326453209E-1,8.002334833E-2,1.403462887E-1
3.070420625E0,-4.271475375E-1,4.825835302E-2,1.389718503E-1
3.072657136E0,-4.202753007E-1,2.153299935E-2,1.340849251E-1
3.074893770E0,-4.144720733E-1,3.207042580E-3,1.316414624E-1
3.077128999E0,-4.095851481E-1,-6.719517522E-3,1.241583601E-1
3.079356355E0,-4.034765065E-1,-1.038470957E-2,1.218676195E-1
3.081603975E0,-3.972151279E-1,-1.985311974E-3,1.194241568E-1
3.083840791E0,-3.930917978E-1,1.725694351E-2,1.171334088E-1
3.086081575E0,-3.824016452E-1,5.833763257E-2,1.137736514E-1
3.088314485E0,-3.689626157E-1,1.139263660E-1,1.104138941E-1
3.090548371E0,-3.543018401E-1,1.670716405E-1,1.131627858E-1
3.092776094E0,-3.324634135E-1,2.127338201E-1,1.171334088E-1
3.095024873E0,-3.109304011E-1,2.426662147E-1,1.224784851E-1
3.097261384E0,-2.883284092E-1,2.664899528E-1,1.275181174E-1
3.099500826E0,-2.574796975E-1,2.767219543E-1,1.328631938E-1
3.101734773E0,-2.252565622E-1,2.846632004E-1,1.380555481E-1
3.103972627E0,-1.945605874E-1,2.840523422E-1,1.394299865E-1
3.106208467E0,-1.600466967E-1,2.857322097E-1,1.409571618E-1
3.108445100E0,-1.269072592E-1,2.814561725E-1,1.424843222E-1
3.110681612E0,-9.498954564E-2,2.784018219E-1,1.440114826E-1
3.112918611E0,-6.291911751E-2,2.814561725E-1,1.492038369E-1
3.115152253E0,-2.825251780E-2,2.904664278E-1,1.531744599E-1
3.117380037E0,1.527163084E-3,3.020728528E-1,1.559233516E-1
3.119628877E0,2.764165215E-2,3.185662329E-1,1.586722434E-1
3.121866609E0,5.635231733E-2,3.410155177E-1,1.614211351E-1
3.124104952E0,8.872817457E-2,3.622430861E-1,1.653917581E-1
3.126335847E0,1.163698286E-1,3.834706545E-1,1.670716405E-1
3.128563387E0,1.438587606E-1,4.072943926E-1,1.673770845E-1
3.130812532E0,1.739438772E-1,4.346306324E-1,1.689042449E-1
3.133049348E0,1.989893466E-1,4.547891617E-1,1.692096740E-1
3.135289095E0,2.275473028E-1,4.699080884E-1,1.670716405E-1
3.137522920E0,2.538145185E-1,4.876231849E-1,1.661553532E-1
3.139760408E0,2.814561725E-1,5.077817440E-1,1.591303945E-1
3.141996004E0,3.089450896E-1,5.302310586E-1,1.533271819E-1
3.144232881E0,3.330742717E-1,5.626068711E-1,1.463022232E-1
3.146469636E0,3.568980098E-1,5.839871764E-1,1.368338168E-1
3.148707307E0,3.857614100E-1,6.015495658E-1,1.273654103E-1
3.150943330E0,4.118759036E-1,6.107125282E-1,1.142318025E-1
3.153179841E0,4.364632070E-1,6.078109145E-1,9.972374886E-2
3.155416536E0,4.610505402E-1,5.977316499E-1,8.765916526E-2
3.157654451E0,4.828889668E-1,5.803219676E-1,7.055493444E-2
3.159890108E0,5.047274232E-1,5.629123449E-1,5.849034712E-2
3.162126924E0,5.254968405E-1,5.467243791E-1,4.749477282E-2
3.164363191E0,5.377141237E-1,5.378668308E-1,3.420845419E-2
3.166600313E0,5.513058901E-1,5.340489149E-1,2.321287990E-2
3.168837129E0,5.586362481E-1,5.338962078E-1,1.359175146E-2
3.171073945E0,5.650503635E-1,5.386304259E-1,1.374446787E-3
3.173310762E0,5.665774941E-1,5.531384945E-1,-1.206458826E-2
3.175548250E0,5.633704662E-1,5.702427030E-1,-2.672535367E-2
3.177783845E0,5.564982295E-1,5.922338367E-1,-4.245513305E-2
3.180020723E0,5.473352671E-1,6.154467463E-1,-5.971207842E-2
3.182257234E0,5.367978215E-1,6.398813725E-1,-8.048149943E-2
3.184494111E0,5.215262175E-1,6.693555713E-1,-1.000291854E-1
3.186730928E0,5.061018467E-1,6.914994717E-1,-1.195768714E-1
3.188967744E0,4.906775057E-1,7.136433125E-1,-1.380555481E-1
3.191204805E0,4.715879560E-1,7.322747111E-1,-1.540907621E-1
3.193442048E0,4.460843503E-1,7.484626174E-1,-1.725694388E-1
3.195677644E0,4.245513380E-1,7.719809413E-1,-1.873829067E-1
3.197912569E0,3.979786932E-1,7.907650471E-1,-2.009746730E-1
3.200143465E0,3.749185503E-1,8.057312369E-1,-2.133446932E-1
3.202387971E0,3.507893682E-1,8.219192028E-1,-2.220495194E-1
3.204625032E0,3.252857327E-1,8.382598162E-1,-2.319760770E-1
3.206863679E0,2.971859276E-1,8.497135639E-1,-2.394591719E-1
3.209098664E0,2.716823220E-1,8.648324609E-1,-2.469422817E-1
3.211336030E0,2.474004179E-1,8.761335015E-1,-2.507601976E-1
3.213571443E0,2.205223590E-1,8.851437569E-1,-2.583959997E-1
3.215805696E0,1.997529417E-1,8.929322958E-1,-2.634356320E-1
3.218031709E0,1.763873398E-1,8.933904171E-1,-2.684752643E-1
3.220274385E0,1.553124934E-1,8.816312551E-1,-2.761110961E-1
3.222518587E0,1.391245574E-1,8.674286604E-1,-2.860376537E-1
3.224756257E0,1.266018152E-1,8.555167913E-1,-2.959642112E-1
3.226981844E0,1.175915599E-1,8.326093554E-1,-3.058907688E-1
3.229215364E0,1.096503139E-1,8.035932183E-1,-3.159700334E-1
3.231451081E0,1.079704314E-1,7.733554244E-1,-3.307835162E-1
3.233690523E0,1.049161032E-1,7.370089293E-1,-3.455969989E-1
3.235927949E0,1.090394482E-1,7.005097270E-1,-3.567453027E-1
3.238164704E0,1.169806942E-1,6.615670323E-1,-3.703370690E-1
3.240402742E0,1.237002090E-1,6.224716902E-1,-3.849978149E-1
3.242637544E0,1.389718503E-1,5.797111392E-1,-3.998112977E-1
3.244875032E0,1.542434692E-1,5.369505286E-1,-4.108068645E-1
3.247112093E0,1.707368344E-1,5.002986193E-1,-4.254676402E-1
3.249348176E0,1.934915632E-1,4.647157490E-1,-4.364632070E-1
3.251584932E0,2.163990140E-1,4.375322461E-1,-4.474588037E-1
3.253821443E0,2.443460971E-1,4.126394689E-1,-4.607451260E-1
3.256061250E0,2.698497176E-1,3.915646076E-1,-4.691445231E-1
3.258309725E0,2.941316068E-1,3.717114925E-1,-4.787656367E-1
3.260546236E0,3.233004212E-1,3.529273868E-1,-4.847215712E-1
3.262783174E0,3.538436890E-1,3.353650272E-1,-4.918992519E-1
3.265017976E0,3.842342496E-1,3.188716471E-1,-4.966334403E-1
3.267253572E0,4.147774875E-1,3.061962128E-1,-5.013676286E-1
3.269490266E0,4.468479156E-1,3.043636084E-1,-5.047274232E-1
3.271726961E0,4.775438905E-1,3.000875413E-1,-5.056437254E-1
3.273963838E0,5.094616413E-1,2.994766831E-1,-5.079344511E-1
3.276200715E0,5.404630303E-1,3.061962128E-1,-5.039638281E-1
3.278437410E0,5.737552047E-1,3.152064681E-1,-4.987714589E-1
3.280671296E0,6.021603942E-1,3.219259977E-1,-4.935791194E-1
3.282896821E0,6.356052756E-1,3.346014321E-1,-4.857905805E-1
3.285135347E0,6.678284407E-1,3.474296033E-1,-4.781547785E-1
3.287383943E0,6.988298297E-1,3.564398587E-1,-4.692972302E-1
3.289623811E0,7.246388793E-1,3.633120954E-1,-4.567744732E-1
3.291861849E0,7.530441284E-1,3.712533414E-1,-4.444044530E-1
3.294094453E0,7.777841687E-1,3.816380501E-1,-4.294382632E-1
3.296331087E0,8.023715019E-1,3.848451078E-1,-4.120286107E-1
3.298568086E0,8.283332586E-1,3.915646076E-1,-3.982841372E-1
3.300805879E0,8.504771590E-1,3.984368443E-1,-3.822489381E-1
3.303041536E0,8.689557910E-1,4.089742899E-1,-3.648392558E-1
3.305278230E0,8.900306821E-1,4.158465266E-1,-3.488040566E-1
3.307514558E0,9.046914577E-1,4.216497242E-1,-3.327688277E-1
3.309750825E0,9.159924388E-1,4.323398769E-1,-3.167336285E-1
3.311984956E0,9.260717034E-1,4.479169548E-1,-3.029891551E-1
3.314224824E0,9.323330522E-1,4.598288238E-1,-2.871066630E-1
3.316462129E0,9.387471676E-1,4.755585790E-1,-2.735149264E-1
3.318700472E0,9.376781583E-1,4.888449013E-1,-2.623666227E-1
3.320935335E0,9.317222238E-1,5.012149215E-1,-2.525927722E-1
3.323172090E0,9.282097220E-1,5.157229900E-1,-2.452623993E-1
3.325408601E0,9.185886383E-1,5.305364728E-1,-2.391537428E-1
3.327645479E0,9.051495790E-1,5.355761051E-1,-2.356412709E-1
3.329882234E0,8.856018782E-1,5.396994352E-1,-2.321287990E-1
3.332118867E0,8.672759533E-1,5.485569835E-1,-2.321287990E-1
3.334356233E0,8.439103365E-1,5.502368808E-1,-2.312124968E-1
3.336593721E0,8.217664957E-1,5.506950021E-1,-2.325869352E-1
3.338829317E0,7.935139537E-1,5.523748994E-1,-2.364048511E-1
3.341065889E0,7.663304210E-1,5.480988622E-1,-2.403754741E-1
3.343302644E0,7.365507483E-1,5.364924073E-1,-2.455678284E-1
3.345539522E0,7.031059265E-1,5.238169432E-1,-2.556470931E-1
3.347773713E0,6.659958363E-1,5.086980462E-1,-2.634356320E-1
3.350002290E0,6.262896061E-1,4.877758920E-1,-2.797762752E-1
3.352249727E0,5.888741016E-1,4.628831446E-1,-2.961169183E-1
3.354487459E0,5.514585972E-1,4.321871698E-1,-3.173444867E-1
3.356725740E0,5.091561675E-1,3.978259861E-1,-3.373503387E-1
3.358959932E0,4.679227769E-1,3.657555580E-1,-3.611740768E-1
3.361196443E0,4.269948006E-1,3.362813294E-1,-3.860668242E-1
3.363434297E0,3.932445049E-1,3.017674387E-1,-4.121813178E-1
3.365670137E0,3.546072841E-1,2.745839357E-1,-4.395175576E-1
3.367906953E0,3.220787048E-1,2.412917763E-1,-4.607451260E-1
3.370143587E0,2.884811163E-1,2.139555514E-1,-4.856378734E-1
3.372381563E0,2.597704530E-1,1.915062517E-1,-5.042692423E-1
3.374617097E0,2.336559594E-1,1.653917581E-1,-5.267185569E-1
3.376850740E0,2.073887438E-1,1.440114826E-1,-5.429064631E-1
3.379078218E0,1.824959964E-1,1.262963861E-1,-5.566509366E-1
3.381327119E0,1.650863290E-1,1.072068512E-1,-5.703954101E-1
3.383564180E0,1.476766765E-1,9.544769675E-2,-5.803219676E-1
3.385803743E0,1.314887404E-1,8.720101416E-2,-5.902485251E-1
3.388037873E0,1.140790880E-1,7.544185966E-2,-5.917757154E-1
3.390275300E0,1.052215397E-1,6.719517708E-2,-5.942191482E-1
3.392510957E0,9.789115191E-2,6.719517708E-2,-5.943718553E-1
3.394747774E0,8.918632567E-2,6.627888232E-2,-5.907067060E-1
3.396984285E0,8.200865984E-2,7.483099401E-2,-5.882632136E-1
3.399221162E0,7.605272532E-2,8.353582025E-2,-5.833762884E-1
3.401457918E0,7.116580009E-2,9.086620808E-2,-5.809328556E-1
3.403694551E0,7.024950534E-2,1.041525230E-1,-5.736024380E-1
3.405931855E0,6.795875728E-2,1.151480973E-1,-5.662720799E-1
3.408169160E0,6.322455406E-2,1.322523206E-1,-5.577199459E-1
3.410405000E0,6.108652428E-2,1.469130963E-1,-5.502368808E-1
3.412641572E0,6.001751125E-2,1.626428664E-1,-5.404630303E-1
3.414878328E0,5.787948146E-2,1.785253733E-1,-5.293147564E-1
3.417114961E0,5.070181563E-2,1.919644028E-1,-5.183191895E-1
3.419352083E0,4.718934000E-2,2.041817009E-1,-5.048801303E-1
3.421588777E0,3.756821156E-2,2.200642079E-1,-4.963280261E-1
3.423825715E0,2.672535367E-2,2.348776907E-1,-4.865541756E-1
3.426063142E0,1.206458826E-2,2.437352389E-1,-4.769330323E-1
3.428298738E0,-6.261368748E-3,2.561052442E-1,-4.696026444E-1
3.430533113E0,-2.932153270E-2,2.700024247E-1,-4.697553813E-1
3.432762361E0,-5.268712714E-2,2.753475010E-1,-4.686863720E-1
3.435009981E0,-7.467827946E-2,2.817615867E-1,-4.688390791E-1
3.437245759E0,-1.004873365E-1,2.846632004E-1,-4.728097022E-1
3.439484895E0,-1.227839142E-1,2.767219543E-1,-4.766276181E-1
3.441719453E0,-1.450804919E-1,2.625193298E-1,-4.830417037E-1
3.443956941E0,-1.638645977E-1,2.483167201E-1,-4.856378734E-1
3.446192598E0,-1.815796942E-1,2.243402600E-1,-4.896084964E-1
3.448429353E0,-1.970040351E-1,1.919644028E-1,-4.935791194E-1
3.450665987E0,-2.026545405E-1,1.519527286E-1,-4.961752892E-1
3.452903108E0,-2.047925740E-1,1.072068512E-1,-4.987714589E-1
3.455139863E0,-2.057088763E-1,6.230825558E-2,-5.002986193E-1
3.457376436E0,-2.018909603E-1,7.635815535E-3,-5.004513264E-1
3.459615022E0,-1.931861341E-1,-4.596760869E-2,-4.993823469E-1
3.461857027E0,-1.794416606E-1,-1.007927656E-1,-5.019785166E-1
3.464086397E0,-1.646281779E-1,-1.606575549E-1,-5.007568002E-1
3.466323457E0,-1.426370293E-1,-2.229658216E-1,-4.984660447E-1
3.468558443E0,-1.204931661E-1,-2.901609838E-1,-4.996877611E-1
3.470796907E0,-9.117163718E-2,-3.622430861E-1,-4.986187518E-1
3.473033662E0,-6.322455406E-2,-4.332561791E-1,-4.937318265E-1
3.475270479E0,-3.390302137E-2,-5.090034604E-1,-4.949535728E-1
3.477507600E0,-4.734205548E-3,-5.873469114E-1,-4.975497425E-1
3.479745027E0,2.825251780E-2,-6.655376554E-1,-5.048801303E-1
3.481980379E0,6.001751125E-2,-7.365507483E-1,-5.134322643E-1
3.484217195E0,9.086620808E-2,-8.038986921E-1,-5.268712640E-1
3.486453767E0,1.278235465E-1,-8.665123582E-1,-5.464189649E-1
3.488690950E0,1.638645977E-1,-9.182831645E-1,-5.684100986E-1
3.490927705E0,2.025018334E-1,-9.686795473E-1,-5.951354504E-1
3.493164277E0,2.449569702E-1,-1.007164121E0,-6.230825782E-1
3.495401338E0,2.926044464E-1,-1.038470864E0,-6.534730792E-1
3.497638826E0,3.365867436E-1,-1.063516378E0,-6.898195744E-1
3.499874422E0,3.894265890E-1,-1.080315232E0,-7.237225771E-1
3.502111055E0,4.398229718E-1,-1.095892191E0,-7.576256394E-1
3.504348115E0,4.891503453E-1,-1.105360627E0,-7.903069258E-1
3.506585908E0,5.447390676E-1,-1.106429696E0,-8.228355050E-1
3.508818513E0,5.978843570E-1,-1.101390004E0,-8.516988754E-1
3.511043122E0,6.499606371E-1,-1.091463447E0,-8.744536042E-1
3.513283235E0,6.997461319E-1,-1.075428247E0,-8.935431242E-1
3.515533174E0,7.533495426E-1,-1.047481179E0,-9.089674950E-1
3.517771517E0,8.032878041E-1,-1.013120055E0,-9.205739498E-1
3.520008028E0,8.523097038E-1,-9.705121517E-1,-9.309586287E-1
3.522241487E0,8.999572396E-1,-9.312640429E-1,-9.366091490E-1
3.524478425E0,9.451612234E-1,-8.848382831E-1,-9.421069026E-1
3.526715303E0,9.868528247E-1,-8.335255980E-1,-9.439395070E-1
3.528952058E0,1.028697014E0,-7.785477638E-1,-9.483683109E-1
3.531188997E0,1.069166899E0,-7.246388793E-1,-9.514226317E-1
3.533426729E0,1.102459073E0,-6.621779203E-1,-9.534079432E-1
3.535662324E0,1.134682178E0,-5.960517526E-1,-9.576839805E-1
3.537899202E0,1.159422278E0,-5.299255848E-1,-9.669997096E-1
3.540135652E0,1.185536742E0,-4.612032473E-1,-9.763153791E-1
3.542372529E0,1.209207773E0,-3.900374472E-1,-9.856310487E-1
3.544609346E0,1.227839112E0,-3.248275816E-1,-9.949467778E-1
3.546846040E0,1.251357436E0,-2.561052442E-1,-1.001819015E0
3.549082734E0,1.273653984E0,-1.947132945E-1,-1.007469535E0
3.551320466E0,1.293201685E0,-1.417207420E-1,-1.013272762E0
3.553556123E0,1.312749386E0,-9.361509979E-2,-1.022741079E0
3.555793245E0,1.330769897E0,-5.146539584E-2,-1.027169943E0
3.558029512E0,1.350164890E0,-1.298088674E-2,-1.031751394E0
3.560266572E0,1.366811037E0,2.183843218E-2,-1.036485553E0
3.562503084E0,1.387274981E0,5.299255997E-2,-1.042288780E0
3.564739900E0,1.402699351E0,8.674286306E-2,-1.048092008E0
3.566976716E0,1.414305806E0,1.084285825E-1,-1.054047942E0
3.569214326E0,1.424537778E0,1.250746548E-1,-1.060003877E0
3.571450227E0,1.435991526E0,1.406517178E-1,-1.065959811E0
3.573687288E0,1.442405581E0,1.551597714E-1,-1.070694089E0
3.575923799E0,1.450041413E0,1.646281779E-1,-1.076802731E0
3.578161348E0,1.455233693E0,1.718058437E-1,-1.080315232E0
3.580397127E0,1.458898902E0,1.742493063E-1,-1.080315232E0
3.582633943E0,1.463938594E0,1.753183305E-1,-1.087645531E0
3.584870576E0,1.466229320E0,1.692096740E-1,-1.087645531E0
3.587108308E0,1.470963478E0,1.606575549E-1,-1.083980322E0
3.589341035E0,1.468367338E0,1.547016203E-1,-1.081536889E0
3.591569368E0,1.468061924E0,1.424843222E-1,-1.077871680E0
3.593817537E0,1.464091301E0,1.279762685E-1,-1.070694089E0
3.596054170E0,1.459967971E0,1.111774743E-1,-1.064585447E0
3.598293855E0,1.454622865E0,9.422596544E-2,-1.056185961E0
3.600524751E0,1.448208809E0,7.849618047E-2,-1.050230026E0
3.602752961E0,1.441641927E0,6.169738993E-2,-1.042899728E0
3.605002412E0,1.436144233E0,4.245513305E-2,-1.034500241E0
3.607238008E0,1.423316002E0,2.076941915E-2,-1.023657441E0
3.609477754E0,1.413084030E0,3.970623948E-3,-1.014036298E0
3.611711092E0,1.400255799E0,-1.756237634E-2,-1.004415154E0
3.613948152E0,1.387580395E0,-3.558290005E-2,-9.923505783E-1
3.616184785E0,1.372308731E0,-5.345070735E-2,-9.816604257E-1
3.618421846E0,1.358411551E0,-6.902777404E-2,-9.683741331E-1
3.620658662E0,1.340849161E0,-8.445212245E-2,-9.575312734E-1
3.622896211E0,1.328021049E0,-9.865473956E-2,-9.430232048E-1
3.625131746E0,1.311680436E0,-1.093448773E-1,-9.285151958E-1
3.627368623E0,1.292896271E0,-1.211040318E-1,-9.140071273E-1
3.629605135E0,1.274264932E0,-1.279762685E-1,-8.982773423E-1
3.631842012E0,1.258077025E0,-1.301143020E-1,-8.849910498E-1
3.634078828E0,1.237154841E0,-1.272126883E-1,-8.692612648E-1
3.636315584E0,1.217301726E0,-1.293507218E-1,-8.498662710E-1
3.638552522E0,1.195005178E0,-1.276708394E-1,-8.316930532E-1
3.640790193E0,1.177595496E0,-1.285871267E-1,-8.196284175E-1
3.643025545E0,1.159116745E0,-1.233947799E-1,-8.002334833E-1
3.645262422E0,1.138041973E0,-1.217148975E-1,-7.794640660E-1
3.647499177E0,1.117119789E0,-1.212567538E-1,-7.663304210E-1
3.649737092E0,1.101084590E0,-1.185078546E-1,-7.455610037E-1
3.651972932E0,1.081078768E0,-1.206458881E-1,-7.286095023E-1
3.654209688E0,1.062447429E0,-1.226311997E-1,-7.092145681E-1
3.656446321E0,1.041372538E0,-1.247692257E-1,-6.922630668E-1
3.658684236E0,1.017854214E0,-1.278235465E-1,-6.753115058E-1
3.660917146E0,9.955576062E-1,-1.310305893E-1,-6.597344875E-1
3.663146638E0,9.731083512E-1,-1.379028261E-1,-6.427829266E-1
3.665392671E0,9.457721114E-1,-1.423316002E-1,-6.282749176E-1
3.667629915E0,9.185886383E-1,-1.478293836E-1,-6.151412725E-1
3.669869355E0,8.947648406E-1,-1.655444801E-1,-6.081163287E-1
3.672103547E0,8.631525636E-1,-2.061670274E-1,-6.084218025E-1
3.674340608E0,8.345946670E-1,-2.784018219E-1,-6.163630486E-1
3.676578035E0,8.095491529E-1,-3.652974069E-1,-6.194173694E-1
3.678813631E0,7.919867635E-1,-4.378376603E-1,-6.062837839E-1
3.681050203E0,7.846564054E-1,-4.813618064E-1,-5.772676468E-1
3.683286775E0,7.840455174E-1,-4.946481287E-1,-5.283984542E-1
3.685523897E0,7.790058851E-1,-4.860960245E-1,-4.769330323E-1
3.687760774E0,7.669413090E-1,-4.592179358E-1,-4.268420935E-1
3.689997529E0,7.461718917E-1,-4.283692539E-1,-3.790418804E-1
3.692234346E0,7.208209634E-1,-3.940080702E-1,-3.387247920E-1
3.694471895E0,6.841690540E-1,-3.652974069E-1,-3.046690524E-1
3.696707612E0,6.389650702E-1,-3.437644243E-1,-2.768746614E-1
3.698944063E0,5.885686874E-1,-3.283400834E-1,-2.539672256E-1
3.701180818E0,5.319108963E-1,-3.211624026E-1,-2.348776907E-1
3.703417634E0,4.726569951E-1,-3.284927905E-1,-2.194533348E-1
3.705654573E0,4.069889784E-1,-3.393356502E-1,-1.956295967E-1
3.707891267E0,3.400992155E-1,-3.550654352E-1,-1.754710376E-1
3.710128206E0,2.680171132E-1,-3.765984178E-1,-1.504255682E-1
3.712365938E0,2.038762718E-1,-3.778201640E-1,-1.314887404E-1
3.714601472E0,1.437060535E-1,-3.620903790E-1,-1.185078546E-1
3.716838045E0,8.353582025E-2,-3.524692357E-1,-1.018617824E-1
3.719074678E0,2.183843218E-2,-3.475823104E-1,-7.299839705E-2
3.721312898E0,-4.245513305E-2,-3.523165286E-1,-4.291328415E-2
3.723548311E0,-1.018617824E-1,-3.597996235E-1,-1.160643995E-2
3.725785127E0,-1.638645977E-1,-3.669773042E-1,1.343903504E-2
3.728021638E0,-2.255619913E-1,-3.743076921E-1,3.130684420E-2
3.730259736E0,-2.849686444E-1,-3.816380501E-1,4.673119262E-2
3.732495332E0,-3.515529633E-1,-3.814853430E-1,5.711590126E-2
3.734732210E0,-4.105014503E-1,-3.755294085E-1,6.520986557E-2
3.736968660E0,-4.668537676E-1,-3.575088978E-1,7.086037099E-2
3.739205537E0,-5.218316317E-1,-3.381139040E-1,7.055493444E-2
3.741442293E0,-5.707008839E-1,-3.165809214E-1,6.902777404E-2
3.743678865E0,-6.131559610E-1,-2.854267955E-1,6.139195710E-2
3.745915986E0,-6.507241726E-1,-2.603813112E-1,5.390885845E-2
3.748153535E0,-6.809620261E-1,-2.379320115E-1,4.505131021E-2
3.750389375E0,-7.024950385E-1,-2.145664245E-1,3.405573592E-2
3.752625947E0,-7.170031071E-1,-2.032654136E-1,2.290744707E-2
3.754862520E0,-7.278459668E-1,-1.933388561E-1,1.313360315E-2
3.757099580E0,-7.287622094E-1,-1.860084683E-1,9.162978968E-4
3.759336397E0,-7.263187766E-1,-1.861611903E-1,-1.007927675E-2
3.761572969E0,-7.186829448E-1,-1.814269722E-1,-1.985312067E-2
3.763810029E0,-7.061602473E-1,-1.756237596E-1,-3.680463135E-2
3.766047578E0,-6.849326491E-1,-1.675297916E-1,-5.375614017E-2
3.768283418E0,-6.638578176E-1,-1.594358236E-1,-6.704246253E-2
3.770519990E0,-6.375905871E-1,-1.466076523E-1,-8.139779419E-2
3.772756502E0,-6.113234162E-1,-1.288925707E-1,-9.575312585E-2
3.774993318E0,-5.813909769E-1,-1.148426682E-1,-1.088867337E-1
3.777230256E0,-5.491678715E-1,-1.070541367E-1,-1.209513173E-1
3.779467256E0,-5.167919993E-1,-9.193521738E-2,-1.290452778E-1
3.781704072E0,-4.856378734E-1,-7.910704613E-2,-1.385136992E-1
3.783941377E0,-4.521929920E-1,-7.131851465E-2,-1.492038369E-1
3.786177156E0,-4.247040749E-1,-5.604688451E-2,-1.551597714E-1
3.788413972E0,-3.937026560E-1,-4.459316283E-2,-1.621847153E-1
3.790650667E0,-3.649919927E-1,-3.176499158E-2,-1.679879427E-1
3.792888582E0,-3.364340365E-1,-1.893682219E-2,-1.762346178E-1
3.795123933E0,-3.077233732E-1,-3.817907767E-3,-1.857030392E-1
3.797360811E0,-2.826778889E-1,1.160643995E-2,-1.939497143E-1
3.799597627E0,-2.577851415E-1,2.565634064E-2,-2.011273801E-1
3.801835664E0,-2.353358418E-1,3.481931984E-2,-2.081523389E-1
3.804071016E0,-2.167044431E-1,4.428773001E-2,-2.141082734E-1
3.806307832E0,-2.017382532E-1,5.115996301E-2,-2.188424766E-1
3.808544222E0,-1.893682331E-1,5.467243865E-2,-2.223549485E-1
3.810780916E0,-1.757764816E-1,5.558873713E-2,-2.258674204E-1
3.813017793E0,-1.621847153E-1,5.650503561E-2,-2.270891517E-1
3.815254793E0,-1.572978050E-1,5.635231733E-2,-2.281581759E-1
3.817491731E0,-1.585195363E-1,5.528330430E-2,-2.283108830E-1
3.819729219E0,-1.572978050E-1,5.528330430E-2,-2.293798923E-1
3.821964754E0,-1.583668143E-1,6.001751125E-2,-2.306016237E-1
3.824201631E0,-1.594358236E-1,6.490442902E-2,-2.318233550E-1
3.826438203E0,-1.605048478E-1,7.223481685E-2,-2.379320115E-1
3.828672334E0,-1.617265791E-1,7.590000331E-2,-2.440406680E-1
3.830900056E0,-1.701259762E-1,7.727445662E-2,-2.515237629E-1
3.833148408E0,-1.786780804E-1,7.864890248E-2,-2.600758672E-1
3.835385713E0,-1.847867370E-1,7.635815442E-2,-2.712241709E-1
3.837626192E0,-1.934915632E-1,7.284568250E-2,-2.835941911E-1
3.839858919E0,-2.046398520E-1,6.337726861E-2,-2.971859276E-1
3.842095674E0,-2.159408629E-1,5.024366826E-2,-3.083342314E-1
3.844332185E0,-2.272418737E-1,3.481931984E-2,-3.231477141E-1
3.846568880E0,-2.434297949E-1,2.046398632E-2,-3.355177343E-1
3.848805086E0,-2.571742535E-1,3.817907767E-3,-3.492622077E-1
3.851042390E0,-2.672535479E-1,-1.175915636E-2,-3.628539443E-1
3.853279512E0,-2.811507285E-1,-3.100141138E-2,-3.764457107E-1
3.855517244E0,-2.910772860E-1,-4.169155285E-2,-3.912591934E-1
3.857752901E0,-3.058907688E-1,-4.978551716E-2,-4.048509300E-1
3.859989473E0,-3.170390725E-1,-6.062837690E-2,-4.208861589E-1
3.862226289E0,-3.281873465E-1,-6.520986557E-2,-4.356996417E-1
3.864464082E0,-3.381139040E-1,-7.345654815E-2,-4.468479156E-1
3.866699922E0,-3.527746797E-1,-7.192938030E-2,-4.543310404E-1
3.868936494E0,-3.688098788E-1,-7.040221989E-2,-4.557054639E-1
3.871173311E0,-3.845396638E-1,-6.291911751E-2,-4.619668424E-1
3.873411043E0,-4.014911950E-1,-4.550946131E-2,-4.607451260E-1
3.875645600E0,-4.280638099E-1,-2.076941915E-2,-4.608978331E-1
3.877879060E0,-4.531092942E-1,1.618792862E-2,-4.645630121E-1
3.880119783E0,-4.842634201E-1,5.803219974E-2,-4.671591818E-1
3.882356843E0,-5.152648091E-1,1.072068512E-1,-4.734205604E-1
3.884594515E0,-5.499314666E-1,1.576032341E-1,-4.783074856E-1
3.886830354E0,-5.833762884E-1,2.031126916E-1,-4.821254015E-1
3.889067659E0,-6.097962260E-1,2.400700450E-1,-4.845688641E-1
3.891305208E0,-6.398813725E-1,2.721404731E-1,-4.810563922E-1
3.893540742E0,-6.577491760E-1,3.003929853E-1,-4.761694670E-1
3.895777193E0,-6.757696867E-1,3.239113092E-1,-4.763221741E-1
3.898013582E0,-6.887505651E-1,3.568980098E-1,-4.714352489E-1
3.900250947E0,-6.916521788E-1,3.933972120E-1,-4.651738703E-1
3.902487764E0,-6.971499324E-1,4.323398769E-1,-4.552473128E-1
3.904724397E0,-6.976081133E-1,4.735732675E-1,-4.440990388E-1
3.906961457E0,-6.968445182E-1,5.148066878E-1,-4.329507351E-1
3.909199190E0,-6.852380633E-1,5.473352671E-1,-4.228714705E-1
3.911434785E0,-6.797403097E-1,5.787948370E-1,-4.117231667E-1
3.913671602E0,-6.681338549E-1,6.015495658E-1,-4.040873647E-1
3.915908785E0,-6.511823535E-1,5.988006592E-1,-3.843869567E-1
3.918144685E0,-5.893322229E-1,5.042692423E-1,-3.365867436E-1
3.920379671E0,-4.665483236E-1,2.797762752E-1,-2.397646159E-1
3.922608919E0,-3.057380617E-1,-3.817907767E-3,-1.171334088E-1
3.924843782E0,-1.514945775E-1,-2.483167201E-1,4.276056774E-3
3.927078645E0,-3.451388702E-2,-4.010330439E-1,9.529497474E-2
3.929313508E0,3.787364438E-2,-4.523457289E-1,1.470658034E-1
3.931554292E0,6.627888232E-2,-4.419609904E-1,1.644754708E-1
3.933803560E0,5.742133409E-2,-3.981314301E-1,1.585195363E-1
3.936040865E0,1.786780916E-2,-3.500257730E-1,1.398881376E-1
3.938278536E0,-4.123340547E-2,-3.002402782E-1,1.041525230E-1
3.940512117E0,-1.151480973E-1,-2.562579811E-1,6.215553731E-2
3.942750032E0,-1.869247705E-1,-2.246456891E-1,2.977968007E-2
3.944990877E0,-2.565633953E-1,-2.086104751E-1,9.621127509E-3
3.947222383E0,-3.179553747E-1,-2.050980031E-1,1.832595794E-3
3.949459199E0,-3.686571717E-1,-2.138028294E-1,3.817907767E-3
3.951694673E0,-4.097378552E-1,-2.299907655E-1,9.468411095E-3
3.953932588E0,-4.554000497E-1,-2.399173230E-1,1.160643995E-2
3.956169465E0,-5.059491396E-1,-2.414444834E-1,1.527163113E-4
3.958406404E0,-5.661193728E-1,-2.426662147E-1,-1.634064503E-2
3.960643098E0,-6.288857460E-1,-2.498438805E-1,-3.772092983E-2
3.962880769E0,-7.029531598E-1,-2.678644061E-1,-6.536258012E-2
3.965116121E0,-7.823656797E-1,-3.039054573E-1,-9.056077152E-2
3.967353242E0,-8.643743396E-1,-3.520110846E-1,-1.197295859E-1
3.969589510E0,-9.453139901E-1,-4.088215530E-1,-1.426370293E-1
3.971826631E0,-1.027628064E0,-4.677700698E-1,-1.631010175E-1
3.974063142E0,-1.105207920E0,-5.294674635E-1,-1.762346178E-1
3.976300020E0,-1.183704138E0,-5.836817622E-1,-1.857030392E-1
3.978537080E0,-1.264949203E0,-6.427829266E-1,-1.866193265E-1
3.980774019E0,-1.353982806E0,-7.186829448E-1,-1.852448881E-1
3.983007722E0,-1.460731506E0,-8.222246170E-1,-1.829541475E-1
3.985246797E0,-1.572519898E0,-9.305005074E-1,-1.672243625E-1
3.987483553E0,-1.676977873E0,-1.025490046E0,-1.354593635E-1
3.989721040E0,-1.760513663E0,-1.129489779E0,-1.047633886E-1
3.991957246E0,-1.838246226E0,-1.252884626E0,-7.406741381E-2
3.994193757E0,-1.902845263E0,-1.388802171E0,-4.214970022E-2
3.996430879E0,-1.968513250E0,-1.519832730E0,-9.010262787E-3
3.998668367E0,-2.036624670E0,-1.645976424E0,2.657263726E-2
4.000903963E0,-2.108401299E0,-1.773189068E0,6.459899992E-2
4.003140596E0,-2.183843136E0,-1.896736622E0,1.050688252E-1
4.005374787E0,-2.265393734E0,-2.018909693E0,1.540907621E-1
4.007601106E0,-2.359314203E0,-2.137112141E0,2.054034323E-1
4.009838349E0,-2.450485945E0,-2.240959167E0,2.654209435E-1
4.012079865E0,-2.537839651E0,-2.338850260E0,3.291036487E-1
4.014316133E0,-2.617862940E0,-2.441628456E0,3.880521357E-1
4.016565584E0,-2.685363531E0,-2.531272888E0,4.445571899E-1
4.018799349E0,-2.741257906E0,-2.600605965E0,4.952589869E-1
4.021037752E0,-2.784323692E0,-2.644741058E0,5.422956347E-1
4.023271333E0,-2.819601297E0,-2.665815830E0,5.884159207E-1
4.025508272E0,-2.845868349E0,-2.671466351E0,6.359107494E-1
4.027745088E0,-2.862056494E0,-2.667495728E0,6.823364496E-1
4.029981843E0,-2.867248774E0,-2.663677931E0,7.263187766E-1
4.032218721E0,-2.868775845E0,-2.661234379E0,7.704538107E-1
4.034456209E0,-2.859002113E0,-2.654209375E0,8.109236360E-1
4.036691804E0,-2.846632004E0,-2.638632536E0,8.477282524E-1
4.038928682E0,-2.823113680E0,-2.623360872E0,8.822421432E-1
4.041165193E0,-2.799442768E0,-2.595871925E0,9.095783234E-1
4.043402070E0,-2.770426512E0,-2.558914423E0,9.320276380E-1
4.045635896E0,-2.740188837E0,-2.514626741E0,9.508117437E-1
4.047860749E0,-2.707201958E0,-2.463008642E0,9.647089243E-1
4.050100862E0,-2.665510416E0,-2.408030748E0,9.714284539E-1
4.052350374E0,-2.622750044E0,-2.359161615E0,9.757044911E-1
4.054589143E0,-2.572506189E0,-2.310292244E0,9.787588120E-1
4.056825716E0,-2.519819021E0,-2.265241146E0,9.781479836E-1
4.059059236E0,-2.459801674E0,-2.221564293E0,9.763153791E-1
4.061296052E0,-2.393675566E0,-2.177887201E0,9.758572578E-1
4.063532930E0,-2.322815180E0,-2.139250040E0,9.753990769E-1
4.065769685E0,-2.255314589E0,-2.093282461E0,9.773843884E-1
4.068006623E0,-2.181857824E0,-2.049758434E0,9.769262671E-1
4.070244356E0,-2.108248711E0,-2.007455826E0,9.741773605E-1
4.072479890E0,-2.026087284E0,-1.963015437E0,9.712757468E-1
4.074717073E0,-1.945147634E0,-1.918422341E0,9.624181986E-1
4.076955415E0,-1.865124345E0,-1.861764550E0,9.523389339E-1
4.079190889E0,-1.786322713E0,-1.803885102E0,9.421069026E-1
4.081426912E0,-1.711186290E0,-1.743409395E0,9.320276380E-1
4.083662691E0,-1.640784025E0,-1.674381614E0,9.231700897E-1
4.085900178E0,-1.575116038E0,-1.601688623E0,9.141598344E-1
4.088135224E0,-1.509448051E0,-1.521665335E0,8.991936445E-1
4.090362398E0,-1.455844641E0,-1.434158921E0,8.840747476E-1
4.092610872E0,-1.404531956E0,-1.336725831E0,8.665123582E-1
4.094845918E0,-1.359022498E0,-1.224784851E0,8.466592431E-1
4.097082124E0,-1.318247199E0,-1.106735110E0,8.193230033E-1
4.099320405E0,-1.279762745E0,-9.787588120E-1,7.870998979E-1
4.101557283E0,-1.242194533E0,-8.423831463E-1,7.512115240E-1
4.103795625E0,-1.207069755E0,-7.023423314E-1,7.055493593E-1
4.106032258E0,-1.164309144E0,-5.514585972E-1,6.637051105E-1
4.108267854E0,-1.121395826E0,-3.956879675E-1,6.145304441E-1
4.110504609E0,-1.076039076E0,-2.388483137E-1,5.581781268E-1
4.112741915E0,-1.026864529E0,-7.956519723E-2,5.016731024E-1
4.114982088E0,-9.691377282E-1,7.467827946E-2,4.404338300E-1
4.117214509E0,-9.114109278E-1,2.277000248E-1,3.814853430E-1
4.119451387E0,-8.440630436E-1,3.730859458E-1,3.251330256E-1
4.121687348E0,-7.706065178E-1,5.137376785E-1,2.675589919E-1
4.123925813E0,-6.960809231E-1,6.493497491E-1,2.113593817E-1
4.126161775E0,-6.142250299E-1,7.837401032E-1,1.598939747E-1
4.128398164E0,-5.262604356E-1,9.143125415E-1,1.122464910E-1
4.130634981E0,-4.309654236E-1,1.042288780E0,6.215553731E-2
4.132871736E0,-3.370448947E-1,1.169043422E0,1.817324013E-2
4.135108674E0,-2.356412709E-1,1.294576168E0,-3.054326214E-2
4.137345369E0,-1.320996135E-1,1.408960700E0,-7.330382615E-2
4.139582307E0,-2.855795063E-2,1.521054506E0,-1.146899462E-1
4.141821016E0,7.727445662E-2,1.627039552E0,-1.586722434E-1
4.144059480E0,1.843285859E-1,1.725694299E0,-2.026545405E-1
4.146292207E0,2.874121070E-1,1.819462180E0,-2.454151064E-1
4.148529024E0,3.904955983E-1,1.908495784E0,-2.881756723E-1
4.150766023E0,4.834998548E-1,1.986839175E0,-3.312416673E-1
4.153002412E0,5.739079118E-1,2.059073925E0,-3.741549551E-1
4.155239168E0,6.517932415E-1,2.120618582E0,-4.149302244E-1
4.157475740E0,7.295258045E-1,2.178650856E0,-4.567744732E-1
4.159713838E0,7.973318696E-1,2.230727196E0,-4.926628172E-1
4.161949373E0,8.550586104E-1,2.272113323E0,-5.274821520E-1
4.164186067E0,9.039278626E-1,2.306321621E0,-5.624541640E-1
4.166422762E0,9.479101300E-1,2.339461088E0,-5.949827433E-1
4.168659639E0,9.793697000E-1,2.359467030E0,-6.264423132E-1
4.170896516E0,1.004415154E0,2.372295141E0,-6.580545902E-1
4.173133272E0,1.000139117E0,2.332283497E0,-6.887505651E-1
4.175370332E0,9.544769526E-1,2.193769693E0,-7.228062749E-1
4.177607576E0,8.793405294E-1,1.998598337E0,-7.536550164E-1
4.179843172E0,7.881689072E-1,1.803732395E0,-7.893906236E-1
4.182079927E0,7.005097270E-1,1.653764963E0,-8.323038816E-1
4.184316316E0,6.275113225E-1,1.555721045E0,-8.811731339E-1
4.186553499E0,5.684100986E-1,1.480431914E0,-9.271407127E-1
4.188790498E0,5.154175758E-1,1.404990077E0,-9.622654915E-1
4.191027070E0,4.708243906E-1,1.328173757E0,-9.812023044E-1
4.193263948E0,4.196644127E-1,1.229671717E0,-9.931141734E-1
4.195501619E0,3.659082949E-1,1.122770309E0,-9.940304756E-1
4.197737276E0,3.055853248E-1,1.009912968E0,-9.912815690E-1
4.199974153E0,2.422080636E-1,9.103419185E-1,-9.983065128E-1
4.202210603E0,1.820378453E-1,8.568912148E-1,-1.016174316E0
4.204447420E0,1.354593635E-1,8.530732989E-1,-1.041067123E0
4.206684053E0,9.315694869E-2,8.234463334E-1,-1.074664712E0
4.208920075E0,4.581489414E-2,7.212791443E-1,-1.108567715E0
4.211154023E0,3.512475174E-3,5.691736937E-1,-1.142470717E0
4.213395540E0,-4.016438872E-2,4.050036669E-1,-1.172861218E0
4.215631257E0,-8.017606288E-2,2.480112910E-1,-1.197143197E0
4.217868868E0,-1.223257631E-1,1.093448773E-1,-1.217607141E0
4.220104707E0,-1.591303945E-1,-1.007927675E-2,-1.227075577E0
4.222342439E0,-2.017382532E-1,-1.099557430E-1,-1.238834739E0
4.224578096E0,-2.365575731E-1,-1.954768747E-1,-1.247997642E0
4.226814912E0,-2.724458873E-1,-2.700024247E-1,-1.257160664E0
4.229051668E0,-2.973386645E-1,-3.448334336E-1,-1.263880134E0
4.231289277E0,-3.245221674E-1,-4.146247804E-1,-1.272890449E0
4.233525117E0,-3.443752825E-1,-4.845688641E-1,-1.280678988E0
4.235761934E0,-3.630066812E-1,-5.534439087E-1,-1.289689302E0
4.237998506E0,-3.717114925E-1,-6.212499738E-1,-1.298546791E0
4.240235322E0,-3.764457107E-1,-6.769914031E-1,-1.307404399E0
4.242472078E0,-3.736968040E-1,-7.292203903E-1,-1.316109180E0
4.244708772E0,-3.634648323E-1,-7.742717266E-1,-1.323592305E0
4.246946260E0,-3.492622077E-1,-8.013024926E-1,-1.329700947E0
4.249183259E0,-3.312416673E-1,-8.258898258E-1,-1.334587812E0
4.251418916E0,-3.094032407E-1,-8.420777321E-1,-1.341765523E0
4.253655611E0,-2.811507285E-1,-8.510879874E-1,-1.345278025E0
4.255892305E0,-2.419026345E-1,-8.542950749E-1,-1.347416043E0
4.258129365E0,-1.924225539E-1,-8.468119502E-1,-1.345736146E0
4.260362947E0,-1.366810948E-1,-8.272642493E-1,-1.345125318E0
4.262587922E0,-7.345654815E-2,-8.054258227E-1,-1.348179579E0
4.264828401E0,-6.566801574E-3,-7.849618196E-1,-1.352455616E0
4.267077608E0,6.291911751E-2,-7.632761002E-1,-1.359022498E0
4.269315889E0,1.298088580E-1,-7.475463152E-1,-1.364520192E0
4.271552400E0,1.963931769E-1,-7.440338731E-1,-1.371392488E0
4.273786287E0,2.550362349E-1,-7.632761002E-1,-1.372156024E0
4.276023347E0,3.097086847E-1,-7.996225953E-1,-1.371850610E0
4.278259736E0,3.590360582E-1,-8.539896011E-1,-1.367879987E0
4.280493074E0,4.033237696E-1,-9.179777503E-1,-1.361771345E0
4.282719880E0,4.386012554E-1,-9.902125597E-1,-1.349401355E0
4.284971223E0,4.741841555E-1,-1.060156584E0,-1.339627504E0
4.287207063E0,5.022839308E-1,-1.127351761E0,-1.332297087E0
4.289447236E0,5.303837657E-1,-1.191034555E0,-1.324966669E0
4.291680391E0,5.514585972E-1,-1.244790673E0,-1.321454287E0
4.293918123E0,5.679519773E-1,-1.286482215E0,-1.321454287E0
4.296153657E0,5.797111392E-1,-1.314581990E0,-1.326341152E0
4.298390291E0,5.914703012E-1,-1.339016676E0,-1.334893227E0
4.300627168E0,5.974262357E-1,-1.351386666E0,-1.342223644E0
4.302865205E0,5.984952450E-1,-1.365894675E0,-1.351997495E0
4.305100862E0,5.945246220E-1,-1.381624460E0,-1.359480619E0
4.307337678E0,5.881105065E-1,-1.397201538E0,-1.366963744E0
4.309574129E0,5.754350424E-1,-1.420109034E0,-1.373225093E0
4.311812166E0,5.575672388E-1,-1.446376204E0,-1.374752283E0
4.314049470E0,5.323690772E-1,-1.476308584E0,-1.372614264E0
4.316272554E0,4.996877611E-1,-1.509600759E0,-1.371850610E0
4.318521272E0,4.610505402E-1,-1.533119082E0,-1.372308731E0
4.320757966E0,4.100432992E-1,-1.557553649E0,-1.372766972E0
4.322997347E0,3.532328308E-1,-1.568549275E0,-1.374599576E0
4.325231660E0,2.866485119E-1,-1.577101350E0,-1.382540822E0
4.327467622E0,2.116648108E-1,-1.578017592E0,-1.394147158E0
4.329704866E0,1.391245574E-1,-1.574199796E0,-1.410640597E0
4.331941560E0,6.078109145E-2,-1.558011770E0,-1.427133918E0
4.334178499E0,-1.511891466E-2,-1.540754914E0,-1.441183805E0
4.336415498E0,-9.590584040E-2,-1.522276163E0,-1.454012036E0
4.338652803E0,-1.768454909E-1,-1.515709400E0,-1.466992855E0
4.340885774E0,-2.495384514E-1,-1.522887111E0,-1.479821086E0
4.343113923E0,-3.174972236E-1,-1.534798980E0,-1.493870974E0
4.345361787E0,-3.917173445E-1,-1.561371565E0,-1.509295344E0
4.347598848E0,-4.625777006E-1,-1.597565293E0,-1.526094079E0
4.349838533E0,-5.335907936E-1,-1.639867783E0,-1.532966375E0
4.352072481E0,-5.975789428E-1,-1.699274421E0,-1.536173344E0
4.354309358E0,-6.627888083E-1,-1.762346268E0,-1.534493446E0
4.356547090E0,-7.159340382E-1,-1.832901120E0,-1.530370116E0
4.358782625E0,-7.730499506E-1,-1.909412026E0,-1.523803353E0
4.361016267E0,-8.265006542E-1,-1.993406057E0,-1.519680023E0
4.363244050E0,-8.823948503E-1,-2.078469038E0,-1.519374609E0
4.365493806E0,-9.384417534E-1,-2.173153162E0,-1.522581577E0
4.367729463E0,-9.932668805E-1,-2.270433426E0,-1.523497939E0
4.369969209E0,-1.045648575E0,-2.365270138E0,-1.524261475E0
4.372199983E0,-1.103986263E0,-2.449111462E0,-1.522734284E0
4.374429414E0,-1.158505917E0,-2.524400711E0,-1.516167521E0
4.376676423E0,-1.209207773E0,-2.587777853E0,-1.505782843E0
4.378914461E0,-1.265865445E0,-2.644893885E0,-1.488220453E0
4.381157990E0,-1.313665748E0,-2.691319466E0,-1.472796082E0
4.383386445E0,-1.361313224E0,-2.726749659E0,-1.455080986E0
4.385623506E0,-1.401324868E0,-2.749046326E0,-1.439656615E0
4.387858674E0,-1.437365890E0,-2.760499954E0,-1.424079657E0
4.390097200E0,-1.468214631E0,-2.763554335E0,-1.413236737E0
4.392334627E0,-1.494023681E0,-2.760652781E0,-1.406211853E0
4.394570222E0,-1.513724089E0,-2.753016949E0,-1.396438003E0
4.396806856E0,-1.529606581E0,-2.747824669E0,-1.389260292E0
4.399043611E0,-1.535715222E0,-2.744006634E0,-1.384373307E0
4.401280488E0,-1.541976571E0,-2.743854046E0,-1.380860925E0
4.403517366E0,-1.543351054E0,-2.754849434E0,-1.383304358E0
4.405754121E0,-1.538616896E0,-2.765845060E0,-1.385747790E0
4.407988314E0,-1.534035325E0,-2.781727552E0,-1.390634775E0
4.410216951E0,-1.525788665E0,-2.802496910E0,-1.389412999E0
4.412464082E0,-1.519680023E0,-2.807384014E0,-1.393078208E0
4.414701143E0,-1.508226275E0,-2.782185793E0,-1.391703725E0
4.416940583E0,-1.498605132E0,-2.734996319E0,-1.397506952E0
4.419174531E0,-1.487456918E0,-2.679407597E0,-1.411862254E0
4.421411043E0,-1.470047235E0,-2.615419626E0,-1.438434958E0
4.423647859E0,-1.452179432E0,-2.543031931E0,-1.475850463E0
4.425884980E0,-1.425759435E0,-2.471866131E0,-1.526704907E0
4.428122529E0,-1.393230915E0,-2.404518366E0,-1.581224680E0
4.430358125E0,-1.359786034E0,-2.349387646E0,-1.639562368E0
4.432594942E0,-1.322828650E0,-2.306474447E0,-1.694082022E0
4.434831758E0,-1.276250243E0,-2.274556637E0,-1.747380018E0
4.437069612E0,-1.229977131E0,-2.252412796E0,-1.794569373E0
4.439305391E0,-1.181413412E0,-2.240042925E0,-1.830915809E0
4.441541902E0,-1.130711555E0,-2.242180824E0,-1.864666104E0
4.443778535E0,-1.075428247E0,-2.253023624E0,-1.891238809E0
4.446016450E0,-1.017854214E0,-2.274709463E0,-1.902997971E0
4.448251863E0,-9.592111707E-1,-2.296547890E0,-1.908801198E0
4.450488740E0,-9.019425511E-1,-2.324342251E0,-1.907121301E0
