"Time (s)","Acceleration x (m/s^2)","Acceleration y (m/s^2)","Acceleration z (m/s^2)"
1.281106700E-2,-4.731806815E-1,9.632308006E0,-6.879364848E-1
1.504080300E-2,-5.216353536E-1,9.641879082E0,-6.263213158E-1
1.730820600E-2,-5.455635786E-1,9.637691498E0,-6.311069727E-1
1.950784400E-2,-5.557330847E-1,9.637691498E0,-5.694918036E-1
2.174132400E-2,-5.844469070E-1,9.632905960E0,-5.222335458E-1
2.397323800E-2,-5.994020700E-1,9.613762856E0,-4.839483798E-1
2.620950500E-2,-6.095715761E-1,9.637691498E0,-4.175475538E-1
2.844510100E-2,-6.430711150E-1,9.638289452E0,-3.840480447E-1
3.068234400E-2,-6.334998012E-1,9.671191216E0,-3.601198196E-1
3.291909900E-2,-6.574280262E-1,9.680762291E0,-2.985046208E-1
3.516781700E-2,-6.723831892E-1,9.675976753E0,-2.703889608E-1
3.740445000E-2,-6.723831892E-1,9.685547829E0,-2.273181528E-1
3.964175600E-2,-6.867401004E-1,9.704689980E0,-1.890329868E-1
4.187564200E-2,-6.867401004E-1,9.738189697E0,-1.609173268E-1
4.411325200E-2,-6.771687865E-1,9.751948357E0,-1.513460279E-1
4.634903100E-2,-6.867401004E-1,9.756733894E0,-1.130608693E-1
4.858566400E-2,-6.681957245E-1,9.742377281E0,-7.477571070E-2
5.082193200E-2,-6.681957245E-1,9.741779327E0,-3.170489892E-2
5.305807600E-2,-6.777670383E-1,9.760921478E0,5.982056726E-3
5.529617400E-2,-7.076773047E-1,9.770493507E0,1.010967568E-1
5.753293000E-2,-7.124629617E-1,9.770493507E0,1.633101404E-1
5.977005100E-2,-7.220342159E-1,9.813564301E0,1.920240223E-1
6.200729500E-2,-7.363911867E-1,9.823135376E0,2.344966233E-1
6.424307400E-2,-7.357929349E-1,9.856036186E0,2.488535494E-1
6.647970700E-2,-7.316055298E-1,9.841679573E0,2.727817893E-1
6.871731700E-2,-7.220342159E-1,9.856036186E0,2.919243574E-1
7.095742900E-2,-7.076773047E-1,9.846465111E0,2.775674164E-1
7.318985100E-2,-7.130611539E-1,9.845867157E0,3.158525825E-1
7.542642300E-2,-6.885347366E-1,9.845867157E0,3.014956415E-1
7.766244700E-2,-6.646065116E-1,9.845269203E0,3.068794906E-1
7.990109400E-2,-6.454638839E-1,9.840482712E0,3.068794906E-1
8.213693400E-2,-6.454638839E-1,9.840482712E0,3.020938635E-1
8.437350600E-2,-6.406782866E-1,9.845269203E0,2.829512656E-1
8.660904000E-2,-6.119644046E-1,9.839884758E0,2.931207716E-1
8.884292700E-2,-6.023930907E-1,9.839884758E0,2.835494876E-1
9.108371100E-2,-5.778666735E-1,9.863214493E0,2.691925466E-1
9.332052700E-2,-5.443671346E-1,9.858428955E0,2.602194548E-1
9.555862600E-2,-5.204389095E-1,9.857831001E0,2.315055877E-1
9.779513700E-2,-5.204389095E-1,9.867402077E0,2.315055877E-1
1.000307330E-1,-5.012963414E-1,9.843474388E0,2.129612118E-1
1.022675490E-1,-4.624129832E-1,9.852447510E0,2.033899277E-1
1.045040600E-1,-4.384847581E-1,9.861420631E0,2.087737769E-1
1.067409380E-1,-4.342973232E-1,9.837491989E0,1.944168359E-1
1.089772660E-1,-3.906283081E-1,9.851250648E0,1.854437590E-1
1.112125560E-1,-4.049852192E-1,9.847063065E0,1.800599098E-1
1.134514480E-1,-3.762713671E-1,9.841679573E0,1.806581169E-1
1.156863110E-1,-3.762713671E-1,9.827322960E0,1.519442350E-1
1.179137280E-1,-3.810569942E-1,9.841679573E0,1.710868180E-1
1.201614090E-1,-3.816552162E-1,9.836894035E0,1.998006850E-1
1.223980420E-1,-3.912265003E-1,9.836894035E0,1.998006850E-1
1.246375440E-1,-3.912265003E-1,9.841679573E0,2.087737769E-1
1.268716140E-1,-3.912265003E-1,9.832108498E0,2.135594189E-1
1.291085520E-1,-3.912265003E-1,9.841679573E0,2.183450609E-1
1.313454910E-1,-4.151547253E-1,9.836894035E0,2.566302419E-1
1.335829790E-1,-4.157529473E-1,9.836894035E0,2.757728100E-1
1.358184520E-1,-4.109672904E-1,9.832108498E0,2.949153781E-1
1.380550860E-1,-4.019941986E-1,9.812965393E0,3.092723191E-1
1.402919630E-1,-4.019941986E-1,9.817152977E0,3.188436031E-1
1.425300610E-1,-3.924229145E-1,9.821938515E0,3.379862010E-1
1.447658400E-1,-3.589234054E-1,9.830911636E0,3.571287692E-1
1.470022290E-1,-3.786641955E-1,9.811769485E0,3.906283081E-1
1.492391680E-1,-3.595215976E-1,9.806983948E0,3.858426511E-1
1.514766550E-1,-3.355933726E-1,9.806385040E0,4.097708762E-1
1.537098710E-1,-3.505485058E-1,9.787242889E0,4.432703853E-1
1.559390580E-1,-3.595215976E-1,9.811170578E0,4.384847581E-1
1.581855180E-1,-3.457628787E-1,9.801599503E0,4.432703853E-1
1.604184890E-1,-3.505485058E-1,9.806385040E0,4.815555513E-1
1.626445630E-1,-3.649054468E-1,9.806385040E0,5.000999570E-1
1.648962110E-1,-3.702892959E-1,9.806385040E0,5.335994363E-1
1.671330270E-1,-3.888336718E-1,9.835099220E0,5.473581553E-1
1.693752140E-1,-3.894318938E-1,9.825528145E0,5.665007830E-1
1.716066600E-1,-4.037888348E-1,9.839884758E0,5.808576941E-1
1.738432330E-1,-4.462614357E-1,9.864411354E0,5.946164131E-1
1.760795000E-1,-4.660021961E-1,9.860223770E0,6.185446382E-1
1.783165600E-1,-4.666004181E-1,9.840482712E0,6.520441771E-1
1.805533770E-1,-4.809573591E-1,9.836296082E0,6.658028960E-1
1.827900100E-1,-5.144568682E-1,9.841081619E0,6.993024349E-1
1.850270700E-1,-5.383850932E-1,9.856036186E0,7.082754970E-1
1.872646190E-1,-5.389832854E-1,9.841679573E0,7.082754970E-1
1.895004590E-1,-5.246263742E-1,9.826724052E0,7.082754970E-1
1.917370310E-1,-5.294120312E-1,9.822537422E0,6.939185858E-1
1.939735430E-1,-5.389832854E-1,9.817750931E0,6.699903607E-1
1.962103590E-1,-5.198407173E-1,9.793823242E0,6.514459848E-1
1.984472360E-1,-5.054838061E-1,9.784252167E0,6.323033571E-1
2.006839920E-1,-4.761717021E-1,9.783653259E0,5.754738450E-1
2.029208690E-1,-4.522434771E-1,9.774082184E0,5.617151260E-1
2.051584790E-1,-4.378865361E-1,9.754940033E0,5.282155871E-1
2.073945020E-1,-4.133601189E-1,9.750154495E0,4.618147612E-1
2.096310740E-1,-3.798605800E-1,9.725627899E0,4.241278172E-1
2.118676470E-1,-3.607180119E-1,9.716055870E0,3.523431420E-1
2.141053790E-1,-3.367897868E-1,9.677771568E0,3.002992272E-1
2.163412180E-1,-3.170489967E-1,9.687342644E0,2.482553422E-1
2.185778520E-1,-3.164508045E-1,9.664012909E0,1.860419661E-1
2.208146070E-1,-2.877369225E-1,9.668199539E0,1.531406492E-1
2.230521560E-1,-2.919243574E-1,9.668798447E0,8.135596663E-2
2.252880570E-1,-2.775674164E-1,9.644869804E0,2.452643216E-2
2.275248730E-1,-2.865405083E-1,9.673583984E0,-1.375873014E-2
2.297614460E-1,-2.859423161E-1,9.669396400E0,-6.640082598E-2
2.319982620E-1,-2.853440940E-1,9.678967476E0,-1.142572835E-1
2.342350780E-1,-2.751746178E-1,9.693324089E0,-1.423729509E-1
2.364689040E-1,-2.793620527E-1,9.708279610E0,-1.854437590E-1
2.386969920E-1,-2.793620527E-1,9.698708534E0,-2.333002090E-1
2.409461990E-1,-2.835494876E-1,9.717850685E0,-2.572284341E-1
2.431817950E-1,-2.883351147E-1,9.723235130E0,-2.907279432E-1
2.454216020E-1,-3.020938635E-1,9.732806206E0,-3.337987661E-1
2.476552440E-1,-3.062812984E-1,9.762118340E0,-3.529413342E-1
2.498922440E-1,-3.014956415E-1,9.771689415E0,-3.667000830E-1
2.521286330E-1,-3.014956415E-1,9.785448074E0,-3.385843933E-1
2.543656930E-1,-3.152543902E-1,9.819545746E0,-3.290131092E-1
2.566027540E-1,-3.535395563E-1,9.815358162E0,-3.248256743E-1
2.588403030E-1,-3.678964674E-1,9.815358162E0,-3.152543902E-1
2.610756540E-1,-3.732803464E-1,9.791430473E0,-2.865405083E-1
2.633127760E-1,-4.121637046E-1,9.772886276E0,-3.062812984E-1
2.655453810E-1,-4.121637046E-1,9.772886276E0,-2.871387303E-1
2.677697460E-1,-3.978067636E-1,9.762716293E0,-2.679961324E-1
2.700226150E-1,-3.978067636E-1,9.781859398E0,-2.344966233E-1
2.722593700E-1,-3.930211067E-1,9.791430473E0,-2.201396823E-1
2.745006430E-1,-3.792623878E-1,9.800403595E0,-1.674975902E-1
2.767341630E-1,-3.984049559E-1,9.790832520E0,-1.722832322E-1
2.789699420E-1,-3.744767308E-1,9.795019150E0,-1.148554832E-1
2.812064530E-1,-3.607180119E-1,9.809376717E0,-5.742774159E-2
2.834430860E-1,-3.511467278E-1,9.808777809E0,-6.221338734E-2
2.856810620E-1,-3.373879790E-1,9.794421196E0,-4.785645287E-3
2.879167800E-1,-3.421736360E-1,9.822537422E0,2.333002165E-2
2.901538400E-1,-3.332005441E-1,9.808179855E0,7.597211748E-2
2.923903520E-1,-3.242274821E-1,9.798010826E0,1.333998591E-1
2.946281450E-1,-3.188436031E-1,9.831509590E0,1.668993831E-1
2.968636790E-1,-3.529413342E-1,9.826724052E0,2.428714931E-1
2.991005570E-1,-3.487538993E-1,9.845269203E0,2.955136001E-1
3.013371290E-1,-3.726821244E-1,9.869196892E0,3.475574851E-1
3.035741290E-1,-3.774677813E-1,9.873982430E0,3.948157430E-1
3.058104570E-1,-3.828516304E-1,9.878767967E0,4.474578202E-1
3.080472730E-1,-3.792623878E-1,9.839884758E0,5.048855543E-1
3.102843340E-1,-3.984049559E-1,9.835099220E0,5.617151260E-1
3.125219430E-1,-4.091726840E-1,9.815957069E0,6.334998012E-1
3.147576000E-1,-3.954139352E-1,9.801599503E0,6.574280262E-1
3.169946000E-1,-4.049852192E-1,9.801599503E0,6.903293133E-1
3.192271440E-1,-4.205385745E-1,9.753743172E0,7.334001660E-1
3.214528520E-1,-4.013960063E-1,9.734002113E0,7.477570772E-1
3.237045000E-1,-3.876372576E-1,9.710074425E0,7.483552694E-1
3.259413160E-1,-3.876372576E-1,9.705288887E0,7.627122402E-1
3.281819770E-1,-3.786641955E-1,9.662218094E0,7.579265833E-1
3.304159860E-1,-3.690928817E-1,9.652048111E0,7.483552694E-1
3.326515210E-1,-3.882354796E-1,9.638289452E0,7.339983582E-1
3.348882150E-1,-4.079762697E-1,9.628718376E0,7.483552694E-1
3.371249100E-1,-4.127618968E-1,9.610174179E0,7.292127013E-1
3.393617260E-1,-4.510470629E-1,9.605986595E0,7.286145091E-1
3.415984200E-1,-4.414757788E-1,9.610772133E0,7.094719410E-1
3.438353590E-1,-4.510470629E-1,9.605986595E0,6.951149702E-1
3.460722360E-1,-4.558327198E-1,9.601201057E0,6.855437160E-1
3.483097850E-1,-4.558327198E-1,9.610772133E0,6.951149702E-1
3.505453200E-1,-4.648058116E-1,9.620343208E0,6.759724021E-1
3.527821360E-1,-4.749752879E-1,9.611370087E0,6.759724021E-1
3.550187700E-1,-4.648058116E-1,9.639486313E0,6.711867452E-1
3.572568070E-1,-4.642075896E-1,9.644869804E0,6.568298340E-1
3.594924020E-1,-4.492524564E-1,9.672985077E0,6.329016089E-1
3.617292190E-1,-4.540380836E-1,9.687342644E0,6.233302951E-1
3.639657910E-1,-4.295116663E-1,9.692128181E0,5.904290080E-1
3.662038280E-1,-4.199403822E-1,9.696913719E0,5.808576941E-1
3.684393630E-1,-4.055834413E-1,9.692128181E0,5.712863803E-1
3.706760570E-1,-3.912265003E-1,9.696315765E0,5.718846321E-1
3.729127520E-1,-3.864408433E-1,9.681958199E0,5.718846321E-1
3.751496290E-1,-3.625126183E-1,9.691530228E0,5.623133183E-1
3.773864450E-1,-3.433700502E-1,9.690931320E0,5.581258535E-1
3.796229570E-1,-3.290131092E-1,9.676574707E0,5.581258535E-1
3.818600780E-1,-3.050848842E-1,9.680762291E0,5.485545993E-1
3.840975660E-1,-2.811566591E-1,9.675976753E0,5.252245665E-1
3.863289500E-1,-2.662015259E-1,9.690333366E0,5.204389095E-1
3.885528880E-1,-2.422732860E-1,9.689735413E0,5.012963414E-1
3.908063060E-1,-2.231307179E-1,9.699306488E0,4.971089065E-1
3.930434280E-1,-2.033899277E-1,9.689137459E0,4.636093974E-1
3.952845170E-1,-2.129612118E-1,9.694520950E0,4.301098585E-1
3.975174270E-1,-2.033899277E-1,9.665806770E0,3.972085714E-1
3.997553420E-1,-1.986042857E-1,9.661021233E0,4.259224236E-1
4.019913650E-1,-1.944168359E-1,9.632308006E0,3.972085714E-1
4.042270220E-1,-2.183450609E-1,9.622735977E0,4.067798555E-1
4.064637770E-1,-2.231307179E-1,9.646664619E0,4.301098585E-1
4.087006550E-1,-2.327020019E-1,9.628120422E0,4.109672904E-1
4.109375320E-1,-2.524427772E-1,9.608977318E0,4.157529473E-1
4.131742870E-1,-2.524427772E-1,9.604191780E0,4.205385745E-1
4.154081130E-1,-2.428714931E-1,9.608977318E0,4.253242314E-1
4.176361400E-1,-2.626122832E-1,9.585049629E0,4.348955154E-1
4.198851640E-1,-2.673979402E-1,9.565906525E0,4.396811724E-1
4.221210040E-1,-2.721835673E-1,9.537791252E0,4.157529473E-1
4.243607500E-1,-2.727817893E-1,9.542576790E0,4.301098585E-1
4.265945140E-1,-2.823530734E-1,9.528220177E0,4.444667995E-1
4.288324900E-1,-2.823530734E-1,9.528220177E0,4.301098585E-1
4.310680860E-1,-2.727817893E-1,9.518648148E0,4.109672904E-1
4.333049020E-1,-2.775674164E-1,9.523433685E0,4.348955154E-1
4.355413530E-1,-2.919243574E-1,9.518648148E0,4.301098585E-1
4.377790240E-1,-2.967100143E-1,9.533005714E0,4.534398913E-1
4.400150470E-1,-2.913261652E-1,9.561718941E0,4.534398913E-1
4.422516800E-1,-3.104687333E-1,9.552745819E0,4.247260094E-1
4.444883740E-1,-3.104687333E-1,9.556933403E0,4.438686073E-1
4.467254960E-1,-3.391826153E-1,9.571888924E0,4.438686073E-1
4.489619460E-1,-3.678964674E-1,9.567701340E0,4.193421602E-1
4.511989450E-1,-3.966103494E-1,9.587442398E0,4.193421602E-1
4.534356400E-1,-4.055834413E-1,9.597013474E0,4.289134443E-1
4.556730060E-1,-4.390829504E-1,9.621540070E0,4.283152521E-1
4.579086010E-1,-4.719842672E-1,9.660423279E0,4.181457460E-1
4.601456620E-1,-4.911268353E-1,9.679565430E0,4.229314029E-1
4.623821730E-1,-5.000999570E-1,9.717850685E0,4.229314029E-1
4.646196000E-1,-5.000999570E-1,9.703494072E0,4.277170599E-1
4.668556230E-1,-5.138586760E-1,9.732806206E0,4.133601189E-1
4.690925000E-1,-5.036891699E-1,9.751948357E0,3.846462369E-1
4.713295000E-1,-5.138586760E-1,9.723235130E0,3.607180119E-1
4.735674150E-1,-5.228317380E-1,9.732806206E0,3.367897868E-1
4.758029490E-1,-5.276173949E-1,9.714262009E0,2.937189937E-1
4.780395830E-1,-5.371887088E-1,9.719047546E0,2.697907388E-1
4.802762770E-1,-5.270192027E-1,9.714262009E0,2.458625287E-1
4.825102240E-1,-5.461617708E-1,9.700503349E0,1.842473447E-1
4.847381910E-1,-5.509474277E-1,9.667601585E0,1.555334777E-1
4.869862380E-1,-5.515456200E-1,9.643673897E0,1.220339537E-1
4.892236030E-1,-5.611169338E-1,9.615557671E0,8.853443712E-2
4.914640210E-1,-5.557330847E-1,9.615557671E0,5.982056633E-2
4.936968700E-1,-5.802595019E-1,9.597013474E0,3.589234129E-2
4.959337480E-1,-5.850451589E-1,9.582656860E0,4.067798331E-2
4.981701370E-1,-5.700899959E-1,9.587442398E0,7.776673418E-3
5.004081740E-1,-5.659025311E-1,9.572486877E0,1.734796353E-2
5.026436480E-1,-5.557330847E-1,9.615557671E0,5.024927482E-2
5.048803420E-1,-5.563312769E-1,9.610772133E0,7.417750359E-2
5.071170970E-1,-5.324030519E-1,9.605388641E0,1.082752272E-1
5.093520210E-1,-5.569294691E-1,9.624530792E0,1.603191197E-1
5.115791940E-1,-5.712863803E-1,9.634101868E0,2.171486616E-1
5.138278520E-1,-5.814558864E-1,9.634101868E0,2.506481707E-1
5.160639360E-1,-5.814558864E-1,9.633503914E0,3.032902777E-1
5.183008740E-1,-5.820540786E-1,9.628718376E0,3.601198196E-1
5.205212110E-1,-5.916253924E-1,9.647860527E0,4.031906128E-1
5.227572340E-1,-5.970092416E-1,9.643074989E0,4.223332107E-1
5.250111400E-1,-5.581258535E-1,9.675976753E0,4.366901219E-1
5.272517410E-1,-5.485545993E-1,9.694520950E0,4.797609448E-1
5.294888620E-1,-5.300102234E-1,9.689137459E0,5.132604837E-1
5.317214060E-1,-5.108676553E-1,9.698110580E0,5.563312769E-1
5.339577960E-1,-4.821537733E-1,9.712467194E0,5.706881881E-1
5.361949780E-1,-4.821537733E-1,9.726225853E0,5.994020700E-1
5.384313060E-1,-4.630111754E-1,9.725627899E0,6.424728632E-1
5.406682450E-1,-4.444667995E-1,9.706484795E0,6.807580590E-1
5.429054270E-1,-4.492524564E-1,9.730413437E0,7.094719410E-1
5.451427930E-1,-4.498506486E-1,9.711270332E0,7.190431952E-1
5.473782060E-1,-4.259224236E-1,9.705886841E0,7.525427341E-1
5.496114820E-1,-4.115654826E-1,9.710074425E0,7.716853023E-1
5.518399980E-1,-3.684946895E-1,9.714262009E0,7.770691514E-1
5.540885940E-1,-3.445664644E-1,9.732806206E0,7.674978375E-1
5.563255930E-1,-3.302095234E-1,9.718449593E0,7.818548083E-1
5.585651570E-1,-3.349951804E-1,9.737591743E0,7.914260626E-1
5.607992870E-1,-3.254238665E-1,9.747162819E0,7.914260626E-1
5.630365920E-1,-3.152543902E-1,9.765707016E0,7.962117195E-1
5.652724320E-1,-3.296113312E-1,9.780662537E0,8.249256015E-1
5.675091870E-1,-3.296113312E-1,9.803992271E0,8.344969153E-1
5.697458200E-1,-3.535395563E-1,9.804591179E0,8.721838593E-1
5.719836130E-1,-3.589234054E-1,9.780662537E0,8.913264275E-1
5.742193920E-1,-3.637090325E-1,9.795019150E0,8.865407705E-1
5.764560260E-1,-3.541377485E-1,9.784850121E0,9.296116233E-1
5.786928420E-1,-3.595215976E-1,9.771091461E0,9.152546525E-1
5.809305740E-1,-3.690928817E-1,9.766305923E0,9.104689956E-1
5.831662310E-1,-3.643072546E-1,9.751948357E0,9.248259664E-1
5.854000560E-1,-3.505485058E-1,9.741779327E0,9.583254457E-1
5.876275960E-1,-3.314059377E-1,9.736394882E0,9.870393276E-1
5.898764970E-1,-2.356930375E-1,9.811170578E0,1.078564763E0
5.921134960E-1,-1.154536903E-1,9.847661972E0,1.093519926E0
5.943529980E-1,-1.196411327E-1,9.819545746E0,9.744769931E-1
5.965840160E-1,-1.483550072E-1,9.791430473E0,9.409775138E-1
5.988128980E-1,-1.674975902E-1,9.782457352E0,9.409775138E-1
6.010602130E-1,-2.255235314E-1,9.759127617E0,9.451649189E-1
6.032968460E-1,-2.644068897E-1,9.768698692E0,1.006780148E0
6.055362870E-1,-2.991028428E-1,9.731011391E0,1.106680512E0
6.077704180E-1,-3.236292601E-1,9.726225853E0,1.173081279E0
6.100071120E-1,-3.523431420E-1,9.721440315E0,1.191625714E0
6.122441110E-1,-3.816552162E-1,9.717252731E0,1.196411371E0
6.144809280E-1,-4.103690982E-1,9.722038269E0,1.238883972E0
6.167184160E-1,-4.151547253E-1,9.727422714E0,1.219741344E0
6.189537670E-1,-4.295116663E-1,9.741779327E0,1.272383451E0
6.211908890E-1,-4.534398913E-1,9.746564865E0,1.262213945E0
6.234274610E-1,-4.384847581E-1,9.775279045E0,1.276570916E0
6.256645830E-1,-4.241278172E-1,9.779465675E0,1.286740422E0
6.279010940E-1,-3.762713671E-1,9.812367439E0,1.320239902E0
6.301379100E-1,-3.427718580E-1,9.826126099E0,1.325623751E0
6.323749100E-1,-2.751746178E-1,9.844072342E0,1.321436286E0
6.346122150E-1,-2.368894368E-1,9.872187614E0,1.340578914E0
6.368478710E-1,-1.926222295E-1,9.909874916E0,1.322034478E0
6.390848710E-1,-1.639083475E-1,9.914062500E0,1.307677627E0
6.413215040E-1,-1.393819153E-1,9.933204651E0,1.284347534E0
6.435593580E-1,-1.298106313E-1,9.923633575E0,1.284347534E0
6.457950760E-1,-1.256231815E-1,9.899705887E0,1.279561877E0
6.480317700E-1,-1.447657645E-1,9.885348320E0,1.260419369E0
6.502687700E-1,-1.734796464E-1,9.881160736E0,1.212562919E0
6.525033270E-1,-1.639083475E-1,9.866804123E0,1.241276741E0
6.547301340E-1,-1.692921966E-1,9.842875481E0,1.222134113E0
6.569784250E-1,-1.980060786E-1,9.843474388E0,1.226321578E0
6.592153030E-1,-2.267199457E-1,9.844072342E0,1.221535921E0
6.614553540E-1,-2.506481707E-1,9.829715729E0,1.230509043E0
6.636870440E-1,-2.656033039E-1,9.801599503E0,1.216152072E0
6.659169020E-1,-2.847459018E-1,9.792028427E0,1.197009563E0
6.681625680E-1,-2.703889608E-1,9.787242889E0,1.211366415E0
6.704003000E-1,-2.799602449E-1,9.796813965E0,1.211366415E0
6.726380930E-1,-2.650051117E-1,9.820742607E0,1.206580877E0
6.748725290E-1,-2.841476798E-1,9.815957069E0,1.211366415E0
6.771089800E-1,-2.650051117E-1,9.801599503E0,1.192822099E0
6.793458570E-1,-2.793620527E-1,9.806385040E0,1.201795220E0
6.815782170E-1,-2.943171859E-1,9.825528145E0,1.249651670E0
6.838014230E-1,-3.038884699E-1,9.830313683E0,1.268195987E0
6.860564890E-1,-3.140579760E-1,9.811170578E0,1.320838094E0
6.882944040E-1,-3.236292601E-1,9.806385040E0,1.339980721E0
6.905342730E-1,-3.194418252E-1,9.815957069E0,1.392024517E0
6.927666330E-1,-2.805584669E-1,9.834501266E0,1.406979680E0
6.950030230E-1,-2.667997181E-1,9.814760208E0,1.421336651E0
6.972399610E-1,-2.530409992E-1,9.809376717E0,1.473978758E0
6.994767770E-1,-2.243271172E-1,9.799804688E0,1.473978758E0
7.017134720E-1,-2.099701911E-1,9.799206734E0,1.488933921E0
7.039501660E-1,-2.051845491E-1,9.803992271E0,1.512862086E0
7.061879590E-1,-1.914258152E-1,9.798608780E0,1.546361685E0
7.084237380E-1,-1.674975902E-1,9.793225288E0,1.560718536E0
7.106604320E-1,-1.585244983E-1,9.793225288E0,1.599003673E0
7.128971880E-1,-1.633101404E-1,9.798010826E0,1.627717614E0
7.151349200E-1,-1.441675574E-1,9.792626381E0,1.642074585E0
7.173705760E-1,-1.160518974E-1,9.792028427E0,1.670788407E0
7.196081250E-1,-9.212367237E-2,9.787242889E0,1.689931035E0
7.218470780E-1,-7.298108935E-2,9.781859398E0,1.709073544E0
7.240817580E-1,-3.050848842E-2,9.776474953E0,1.728814363E0
7.263175980E-1,-2.093719877E-2,9.775876999E0,1.786242127E0
7.285536200E-1,-2.392822644E-3,9.751350403E0,1.800599098E0
7.307906810E-1,1.196411345E-2,9.746564865E0,1.805384636E0
7.330274980E-1,3.110669367E-2,9.741181374E0,1.815554142E0
7.352643140E-1,4.067798331E-2,9.760323524E0,1.815554142E0
7.375011920E-1,4.965107143E-2,9.726823807E0,1.825125456E0
7.397383130E-1,8.315058798E-2,9.735796928E0,1.863410592E0
7.419758620E-1,9.272187948E-2,9.739984512E0,1.892124534E0
7.442116410E-1,8.733802289E-2,9.735198975E0,1.930409670E0
7.464482130E-1,8.255238086E-2,9.720842361E0,1.935195327E0
7.486817940E-1,9.212367237E-2,9.706484795E0,1.896910191E0
7.509097610E-1,6.819544733E-2,9.707083702E0,1.901695848E0
7.531581130E-1,5.862415582E-2,9.687940598E0,1.863410592E0
7.553949900E-1,4.366901144E-2,9.655039787E0,1.839482427E0
7.576352860E-1,1.974078640E-2,9.646066666E0,1.796411633E0
7.598699050E-1,-3.589233849E-3,9.632308006E0,1.734198213E0
7.621054400E-1,-2.273181453E-2,9.632905960E0,1.710269928E0
7.643419510E-1,-2.751746029E-2,9.604191780E0,1.676770449E0
7.665785230E-1,-7.776673418E-3,9.608977318E0,1.633699656E0
7.688156450E-1,1.136590727E-2,9.604191780E0,1.605584025E0
7.710525220E-1,1.615155302E-2,9.608977318E0,1.581655741E0
7.732892770E-1,4.606183618E-2,9.641879082E0,1.548754454E0
7.755261550E-1,7.956135273E-2,9.651450157E0,1.543968797E0
7.777638260E-1,8.973085135E-2,9.674779892E0,1.524826288E0
7.799991770E-1,1.040877849E-1,9.669994354E0,1.506281853E0
7.822361160E-1,1.142572835E-1,9.698708534E0,1.506281853E0
7.844729930E-1,1.381855011E-1,9.688538551E0,1.482353687E0
7.867103590E-1,1.339980662E-1,9.703494072E0,1.453639746E0
7.889459550E-1,1.339980662E-1,9.722636223E0,1.434497118E0
7.911827100E-1,9.152546525E-2,9.723235130E0,1.381855130E0
7.934197100E-1,9.631111473E-2,9.719047546E0,1.343569875E0
7.956577470E-1,7.776673883E-2,9.728618622E0,1.338784218E0
7.978932810E-1,4.905286431E-2,9.719645500E0,1.300499082E0
8.001299150E-1,3.948157281E-2,9.720243454E0,1.276570916E0
8.023636180E-1,6.580262445E-3,9.735198975E0,1.243071318E0
8.045914630E-1,1.794616925E-3,9.730413437E0,1.214357495E0
8.068400590E-1,-2.213360928E-2,9.731011391E0,1.208973646E0
8.090768140E-1,-5.084748194E-2,9.731609344E0,1.199402332E0
8.113169270E-1,-3.589234129E-2,9.735796928E0,1.175474167E0
8.135514840E-1,-6.939185411E-2,9.731609344E0,1.146760225E0
8.157870190E-1,-8.374879509E-2,9.736993790E0,1.141974568E0
8.180236520E-1,-8.793623000E-2,9.746564865E0,1.122832060E0
8.202604080E-1,-1.166501045E-1,9.751948357E0,1.108475089E0
8.224972850E-1,-1.070788130E-1,9.756733894E0,1.089332461E0
8.247341630E-1,-1.208375469E-1,9.771091461E0,1.089332461E0
8.269708570E-1,-1.256231815E-1,9.771091461E0,1.065404296E0
8.292077340E-1,-1.256231815E-1,9.780662537E0,1.070189953E0
8.314423530E-1,-1.202393398E-1,9.800403595E0,1.012762189E0
8.336693430E-1,-1.202393398E-1,9.795618057E0,9.888339639E-1
8.359176950E-1,-1.196411327E-1,9.795618057E0,9.840483069E-1
8.381542680E-1,-1.100698411E-1,9.795618057E0,9.840483069E-1
8.403912670E-1,-7.657032460E-2,9.823733330E0,9.798609018E-1
8.426162430E-1,-4.725824669E-2,9.861420631E0,9.750752449E-1
8.448649610E-1,-2.213360928E-2,9.885348320E0,9.326026440E-1
8.471018380E-1,-2.213360928E-2,9.870991707E0,8.943174481E-1
8.493425610E-1,-3.230310604E-2,9.847063065E0,8.847461939E-1
8.515750440E-1,-5.563312769E-2,9.847661972E0,8.368897438E-1
8.538114940E-1,-6.041877344E-2,9.838688850E0,8.321040869E-1
8.560484940E-1,-7.956135273E-2,9.829715729E0,7.842476368E-1
8.582862870E-1,-9.391828626E-2,9.824930191E0,7.651050687E-1
8.605219430E-1,-1.274178028E-1,9.792028427E0,7.316055298E-1
8.627584550E-1,-1.615155339E-1,9.759127617E0,7.310073376E-1
8.649952710E-1,-2.195414752E-1,9.726823807E0,7.304090858E-1
8.672331250E-1,-2.434697002E-1,9.707681656E0,7.208378315E-1
8.694695140E-1,-2.775674164E-1,9.684351921E0,7.208378315E-1
8.717076730E-1,-3.110669553E-1,9.675378799E0,6.915257573E-1
8.739418650E-1,-3.302095234E-1,9.666405678E0,6.867401004E-1
8.761791090E-1,-3.690928817E-1,9.647860527E0,7.052844763E-1
8.784152540E-1,-3.984049559E-1,9.638289452E0,7.387840152E-1
8.806528030E-1,-4.031906128E-1,9.633503914E0,7.579265833E-1
8.828893750E-1,-4.037888348E-1,9.619147301E0,7.764709592E-1
8.851271680E-1,-3.792623878E-1,9.632905960E0,8.009973764E-1
8.873627030E-1,-3.511467278E-1,9.641879082E0,8.440681696E-1
8.895995800E-1,-3.074777126E-1,9.665208817E0,8.440681696E-1
8.918358470E-1,-2.733799815E-1,9.698110580E0,8.542376757E-1
8.940729690E-1,-2.303091735E-1,9.739984512E0,9.020941257E-1
8.963097240E-1,-1.872383654E-1,9.753743172E0,9.266205430E-1
8.985437950E-1,-1.830509305E-1,9.758528709E0,9.882357717E-1
9.007731640E-1,-1.489532143E-1,9.800403595E0,1.016949654E0
9.030209060E-1,-1.339980662E-1,9.829116821E0,1.036092162E0
9.052565630E-1,-1.387837082E-1,9.848259926E0,1.064806104E0
9.074959420E-1,-1.244267747E-1,9.862018585E0,1.088734269E0
9.097299510E-1,-1.298106313E-1,9.823733330E0,1.098305583E0
9.119670120E-1,-1.304088384E-1,9.828518867E0,1.131805062E0
9.142036450E-1,-1.441675574E-1,9.862018585E0,1.127019525E0
9.164406450E-1,-1.579262912E-1,9.909874916E0,1.164706469E0
9.186774000E-1,-1.686939895E-1,9.853045464E0,1.169492126E0
9.209147660E-1,-2.075773627E-1,9.796216011E0,1.159920812E0
9.231506060E-1,-2.464607358E-1,9.744172096E0,1.144965649E0
9.253876660E-1,-2.662015259E-1,9.696913719E0,1.125823021E0
9.276242990E-1,-2.997010350E-1,9.701699257E0,1.130608678E0
9.298620920E-1,-2.991028428E-1,9.702297211E0,1.082752228E0
9.320978100E-1,-2.991028428E-1,9.707083702E0,1.077966571E0
9.343345650E-1,-3.038884699E-1,9.721440315E0,1.054038405E0
9.365716870E-1,-2.691925466E-1,9.778867722E0,1.011565804E0
9.388086870E-1,-2.542374134E-1,9.792626381E0,9.684949517E-1
9.410443430E-1,-2.392822653E-1,9.788438797E0,9.116654396E-1
9.432810380E-1,-2.344966233E-1,9.788438797E0,8.973084688E-1
9.455177930E-1,-2.769692242E-1,9.793823242E0,8.446664214E-1
9.477548540E-1,-2.997010350E-1,9.870991707E0,8.201399446E-1
9.499914260E-1,-3.517449200E-1,9.914660454E0,8.051848412E-1
9.522282420E-1,-4.091726840E-1,9.906285286E0,7.860422134E-1
9.544652420E-1,-4.378865361E-1,9.878170013E0,7.663014531E-1
9.567026080E-1,-4.821537733E-1,9.811769485E0,7.471588850E-1
9.589383860E-1,-5.264210105E-1,9.726225853E0,7.375875711E-1
9.611750200E-1,-5.653043389E-1,9.669396400E0,7.274180651E-1
9.634119580E-1,-6.000002623E-1,9.574281693E0,7.322037220E-1
9.656490800E-1,-6.251249313E-1,9.494122505E0,6.843472719E-1
9.678852250E-1,-6.544370055E-1,9.427123070E0,6.843472719E-1
9.701219800E-1,-6.358926296E-1,9.403194427E0,6.747759581E-1
9.723589800E-1,-5.832505226E-1,9.393025398E0,6.801598072E-1
9.745967120E-1,-5.449653864E-1,9.416355133E0,6.897311211E-1
9.768324900E-1,-4.767699242E-1,9.463015556E0,6.903293133E-1
9.790690630E-1,-4.283152521E-1,9.519247055E0,7.100701332E-1
9.813055740E-1,-3.505485058E-1,9.594620705E0,7.298108935E-1
9.835423900E-1,-2.781656384E-1,9.665208817E0,7.441678643E-1
9.857792070E-1,-2.147558331E-1,9.750154495E0,7.591229677E-1
9.880158400E-1,-1.130608693E-1,9.834501266E0,8.123632669E-1
9.902531450E-1,-4.007977992E-2,9.914660454E0,8.321040869E-1
9.924904490E-1,1.794617064E-2,9.966106415E0,8.470591903E-1
9.947263500E-1,3.708875179E-2,9.980463028E0,8.709874153E-1
9.969630450E-1,9.451649338E-2,1.001276588E1,8.949156404E-1
9.991997390E-1,9.451649338E-2,1.002233791E1,9.523434043E-1
1.001437654E0,9.391828626E-2,1.000319481E1,9.571290612E-1
1.003673006E0,9.810572863E-2,9.964311600E0,9.762716293E-1
1.005909883E0,8.793623000E-2,9.930811882E0,1.000199914E0
1.008143769E0,9.690931439E-2,9.897313118E0,1.019342422E0
1.010370149E0,7.657032460E-2,9.849455833E0,1.066600680E0
1.012605744E0,5.682953820E-2,9.802198410E0,1.085743308E0
1.014845491E0,5.084748194E-2,9.763913155E0,1.119242787E0
1.017096528E0,3.110669367E-2,9.735198975E0,1.157527924E0
1.019333162E0,4.486542568E-2,9.686744690E0,1.186241865E0
1.021569978E0,3.888336942E-2,9.662816048E0,1.276570916E0
1.023803865E0,3.828516230E-2,9.633503914E0,1.310070395E0
1.026041047E0,3.768695518E-2,9.619147301E0,1.348355532E0
1.028278535E0,6.520441920E-2,9.594620705E0,1.424925923E0
1.030514070E0,5.024927482E-2,9.575477600E0,1.457827210E0
1.032750642E0,7.417750359E-2,9.546165466E0,1.453639746E0
1.034987215E0,8.733802289E-2,9.512666702E0,1.501496196E0
1.037224275E0,1.256231815E-1,9.507282257E0,1.520638824E0
1.039460908E0,1.489532143E-1,9.487542152E0,1.545165181E0
1.041697664E0,1.722832322E-1,9.463015556E0,1.559522152E0
1.043934541E0,1.860419661E-1,9.439086914E0,1.597807288E0
1.046172395E0,2.291127741E-1,9.423533440E0,1.627119422E0
1.048408174E0,2.524427772E-1,9.394820213E0,1.641476393E0
1.050644746E0,2.470589429E-1,9.403793335E0,1.703689694E0
1.052881013E0,2.805584669E-1,9.398408890E0,1.737189293E0
1.055118074E0,3.230310678E-1,9.388239861E0,1.765903115E0
1.057355012E0,3.421736360E-1,9.387641907E0,1.804188251E0
1.059592012E0,3.607180119E-1,9.396614075E0,1.847259045E0
1.061828645E0,3.846462369E-1,9.405587196E0,1.876571178E0
1.064066316E0,3.942175210E-1,9.410373688E0,1.890928149E0
1.066301668E0,3.942175210E-1,9.443872452E0,1.942971945E0
1.068535981E0,3.894318938E-1,9.448657990E0,1.957328916E0
1.070764009E0,3.756731451E-1,9.491728783E0,1.990230203E0
1.073012971E0,3.607180119E-1,9.491728783E0,2.028515339E0
1.075248933E0,3.320041299E-1,9.506086349E0,2.056631088E0
1.077488375E0,3.176472187E-1,9.520442963E0,2.070987940E0
1.079723054E0,3.272185028E-1,9.530014038E0,2.090130568E0
1.081962556E0,3.320041299E-1,9.524630547E0,2.123630047E0
1.084195772E0,2.979064286E-1,9.515657425E0,2.123031855E0
1.086432588E0,2.931207716E-1,9.506086349E0,2.166102648E0
1.088668550E0,2.877369225E-1,9.491728783E0,2.190030813E0
1.090906221E0,2.823530734E-1,9.477372169E0,2.209173441E0
1.093142793E0,2.967100143E-1,9.482157707E0,2.218744755E0
1.095376679E0,2.823530734E-1,9.477372169E0,2.233101845E0
1.097601960E0,3.104687333E-1,9.462417603E0,2.280958176E0
1.099842195E0,3.104687333E-1,9.471988678E0,2.271386862E0
1.102089509E0,3.403790295E-1,9.533603668E0,2.252244234E0
1.104329256E0,3.649054468E-1,9.562317848E0,2.243271112E0
1.106565889E0,4.336991012E-1,9.652048111E0,2.228914261E0
1.108800081E0,5.018945336E-1,9.727422714E0,2.196012974E0
1.111036836E0,5.653043389E-1,9.765109062E0,2.158924341E0
1.113273347E0,5.940182209E-1,9.765109062E0,2.130210400E0
1.115510225E0,5.946164131E-1,9.765109062E0,2.082353830E0
1.117748018E0,6.041877270E-1,9.736394882E0,2.025524378E0
1.119983858E0,5.754738450E-1,9.717850685E0,1.968096614E0
1.122220491E0,5.318048596E-1,9.647262573E0,1.939382792E0
1.124457002E0,4.887340367E-1,9.623932838E0,1.881356835E0
1.126694002E0,4.163511395E-1,9.582656860E0,1.843071699E0
1.128930635E0,3.637090325E-1,9.559326172E0,1.789831281E0
1.131167451E0,3.206382394E-1,9.541379929E0,1.770688772E0
1.133404512E0,2.817548811E-1,9.513264656E0,1.750947952E0
1.135642000E0,2.482553422E-1,9.504291534E0,1.741376638E0
1.137877351E0,2.099701911E-1,9.509675026E0,1.721635938E0
1.140114168E0,1.908276081E-1,9.509675026E0,1.745564103E0
1.142351045E0,1.627119333E-1,9.534201622E0,1.716850281E0
1.144589082E0,1.531406492E-1,9.548559189E0,1.735394597E0
1.146824434E0,1.435693651E-1,9.548559189E0,1.759322882E0
1.149061250E0,1.244267747E-1,9.563513756E0,1.768894196E0
1.151296541E0,1.052841991E-1,9.601799011E0,1.806581140E0
1.153530000E0,7.657032460E-2,9.606584549E0,1.849053741E0
1.155771394E0,6.161518395E-2,9.606584549E0,1.896910191E0
1.158008027E0,2.333002165E-2,9.621540070E0,1.920240164E0
1.160246309E0,-5.383851007E-3,9.650253296E0,1.957927108E0
1.162481843E0,1.435693540E-2,9.683753014E0,1.972284079E0
1.164718233E0,-9.571290575E-3,9.698110580E0,1.991426587E0
1.166955049E0,-4.785645287E-3,9.702896118E0,1.991426587E0
1.169192353E0,-3.349951655E-2,9.703494072E0,1.977069736E0
1.171429963E0,-5.264209956E-2,9.703494072E0,1.976471543E0
1.173665498E0,-6.221338734E-2,9.708877563E0,1.971685886E0
1.175902009E0,-5.264209956E-2,9.669994354E0,1.953141451E0
1.178138582E0,-6.699903309E-2,9.656235695E0,1.938784599E0
1.180372529E0,-7.716853172E-2,9.627521515E0,1.919641972E0
1.182599763E0,-6.759724021E-2,9.613164902E0,1.910070658E0
1.184848787E0,-4.905286431E-2,9.579665184E0,1.905285001E0
1.187085908E0,-4.366901144E-2,9.574879646E0,1.876571178E0
1.189326814E0,-3.948157281E-2,9.565308571E0,1.886740685E0
1.191559358E0,-4.426721856E-2,9.536594391E0,1.853241086E0
1.193796174E0,-2.991028316E-2,9.531808853E0,1.848455548E0
1.196032625E0,-1.555334684E-2,9.531808853E0,1.834098577E0
1.198269502E0,-1.555334684E-2,9.531808853E0,1.824527264E0
1.200505708E0,3.589233849E-3,9.531210899E0,1.810768485E0
1.202740632E0,3.290131316E-2,9.540781975E0,1.810768485E0
1.204979951E0,7.118647546E-2,9.530612946E0,1.782652855E0
1.207217500E0,7.597211748E-2,9.525827408E0,1.797009826E0
1.209453950E0,1.040877849E-1,9.496515274E0,1.797009826E0
1.211690156E0,1.328016520E-1,9.505488396E0,1.797608018E0
1.213926729E0,2.003988922E-1,9.495318413E0,1.759921074E0
1.216164522E0,2.195414752E-1,9.480961800E0,1.746162295E0
1.218400300E0,2.578266263E-1,9.499505997E0,1.746162295E0
1.220636873E0,2.775674164E-1,9.518050194E0,1.731805444E0
1.222873506E0,2.871387303E-1,9.532406807E0,1.718046665E0
1.225111482E0,2.973082066E-1,9.551549911E0,1.713261008E0
1.227347139E0,2.973082066E-1,9.541978836E0,1.694118381E0
1.229581880E0,2.787638307E-1,9.580264091E0,1.689332843E0
1.231811861E0,2.596212626E-1,9.580862045E0,1.688734531E0
1.234057100E0,2.356930375E-1,9.595816612E0,1.679163337E0
1.236294099E0,2.213360965E-1,9.576674461E0,1.645663738E0
1.238532808E0,1.830509305E-1,9.586843491E0,1.640279889E0
1.240767854E0,1.597209126E-1,9.606584549E0,1.640279889E0
1.243005342E0,1.166501045E-1,9.611968994E0,1.639681697E0
1.245241243E0,9.332008660E-2,9.622138023E0,1.606182218E0
1.247475007E0,5.024927482E-2,9.617950439E0,1.591825247E0
1.249702303E0,2.153540403E-2,9.637691498E0,1.562513232E0
1.251951082E0,2.392822644E-3,9.637691498E0,1.557727575E0
1.254187898E0,-3.050848842E-2,9.652647018E0,1.542772412E0
1.256427706E0,-6.400800496E-2,9.638887405E0,1.528415442E0
1.258661653E0,-9.750752151E-2,9.634700775E0,1.509272933E0
1.260899385E0,-9.272187948E-2,9.625128746E0,1.504487276E0
1.263135042E0,-1.076770201E-1,9.601799011E0,1.490130305E0
1.265372102E0,-1.028913707E-1,9.592227936E0,1.466202021E0
1.267608308E0,-1.028913707E-1,9.563513756E0,1.470987678E0
1.269845125E0,-1.130608693E-1,9.549157143E0,1.466202021E0
1.272081697E0,-9.391828626E-2,9.539586067E0,1.447059512E0
1.274318757E0,-1.028913707E-1,9.553942680E0,1.399801254E0
1.276555635E0,-7.896314561E-2,9.534799576E0,1.395015597E0
1.278793184E0,-8.853443712E-2,9.530014038E0,1.390229940E0
1.281028657E0,-5.503492057E-2,9.534799576E0,1.362114310E0
1.283265352E0,-3.110669367E-2,9.519845009E0,1.362114310E0
1.285499604E0,-3.050848842E-2,9.553344727E0,1.328614831E0
1.287728975E0,1.854437590E-2,9.605388641E0,1.314856052E0
1.289975862E0,7.657032460E-2,9.657432556E0,1.296311617E0
1.292212617E0,1.202393398E-1,9.661619186E0,1.262812138E0
1.294452242E0,1.208375469E-1,9.685547829E0,1.220339537E0
1.296687166E0,1.357926875E-1,9.695118904E0,1.210768223E0
1.298922578E0,1.405783296E-1,9.690333366E0,1.172483087E0
1.301159639E0,1.304088384E-1,9.661619186E0,1.177268744E0
1.303396150E0,1.166501045E-1,9.667003632E0,1.138983607E0
1.305633088E0,8.255238086E-2,9.638887405E0,1.134197950E0
1.307869844E0,6.819544733E-2,9.624530792E0,1.129412293E0
1.310106599E0,2.991028316E-2,9.625128746E0,1.143171072E0
1.312343477E0,5.383851007E-3,9.634700775E0,1.180858016E0
1.314579988E0,-4.666004330E-2,9.645467758E0,1.152144074E0
1.316812593E0,-4.725824669E-2,9.645467758E0,1.199402332E0
1.319053132E0,-8.554340899E-2,9.659825325E0,1.228116274E0
1.321289705E0,-1.381855011E-1,9.665208817E0,1.241874933E0
1.323527803E0,-1.477568001E-1,9.670592308E0,1.246062398E0
1.325763704E0,-1.812563092E-1,9.689735413E0,1.274776220E0
1.328000520E0,-1.866401732E-1,9.670592308E0,1.312463164E0
1.330237581E0,-2.051845491E-1,9.699904442E0,1.307677627E0
1.332475068E0,-2.147558331E-1,9.718449593E0,1.345962763E0
1.334710603E0,-2.201396823E-1,9.699904442E0,1.345962763E0
1.336947175E0,-2.297109663E-1,9.719047546E0,1.369292736E0
1.339183748E0,-2.291127741E-1,9.747760773E0,1.369292736E0
1.341420869E0,-2.386840582E-1,9.771689415E0,1.398006678E0
1.343657686E0,-2.285145670E-1,9.799804688E0,1.426720500E0
1.345894258E0,-2.189432681E-1,9.823733330E0,1.455434322E0
1.348131318E0,-2.285145670E-1,9.828518867E0,1.450050473E0
1.350365815E0,-2.093719840E-1,9.842277527E0,1.469791293E0
1.352592439E0,-1.998006850E-1,9.837491989E0,1.465005636E0
1.354840974E0,-1.950150430E-1,9.818349838E0,1.455434322E0
1.357077852E0,-1.716850251E-1,9.798608780E0,1.469791293E0
1.359318941E0,-1.621137410E-1,9.793823242E0,1.436890006E0
1.361551729E0,-1.525424421E-1,9.755537987E0,1.427318692E0
1.363788057E0,-1.339980662E-1,9.741181374E0,1.456032634E0
1.366024873E0,-1.393819153E-1,9.717252731E0,1.465603828E0
1.368262849E0,-1.345962733E-1,9.721440315E0,1.470389485E0
1.370498506E0,-1.112662554E-1,9.697511673E0,1.494317770E0
1.372735139E0,-1.160518974E-1,9.678369522E0,1.499103427E0
1.374971834E0,-1.112662554E-1,9.697511673E0,1.494317770E0
1.377208650E0,-1.262213886E-1,9.664012909E0,1.523031592E0
1.379442292E0,-1.262213886E-1,9.659226418E0,1.523031592E0
1.381670015E0,-1.220339537E-1,9.640084267E0,1.556531072E0
1.383918855E0,-1.220339537E-1,9.620942116E0,1.542174220E0
1.386156465E0,-1.172483116E-1,9.629914284E0,1.561316729E0
1.388395296E0,-1.076770201E-1,9.615557671E0,1.556531072E0
1.390629182E0,-1.082752272E-1,9.605986595E0,1.570888042E0
1.392865755E0,-1.274178028E-1,9.605986595E0,1.590030670E0
1.395102754E0,-1.034895778E-1,9.625128746E0,1.594816327E0
1.397339326E0,-1.034895778E-1,9.620343208E0,1.604387641E0
1.399576082E0,-9.391828626E-2,9.624530792E0,1.599601984E0
1.401812837E0,-1.082752272E-1,9.634700775E0,1.618744493E0
1.404050264E0,-9.332008660E-2,9.672387123E0,1.604387641E0
1.406286348E0,-9.272187948E-2,9.672387123E0,1.594816327E0
1.408523225E0,-8.793623000E-2,9.681958199E0,1.570888042E0
1.410759798E0,-9.272187948E-2,9.663414001E0,1.542174220E0
1.412996492E0,-9.272187948E-2,9.658628464E0,1.523629785E0
1.415233064E0,-9.212367237E-2,9.668199539E0,1.494915962E0
1.417468660E0,-7.836493850E-2,9.634700775E0,1.490130305E0
1.419702058E0,-9.272187948E-2,9.644271851E0,1.475773335E0
1.421944307E0,-6.819544733E-2,9.663414001E0,1.475773335E0
1.424180086E0,-5.922235921E-2,9.634700775E0,1.471585870E0
1.426417940E0,-6.400800496E-2,9.639486313E0,1.494915962E0
1.428653840E0,-5.443671346E-2,9.638887405E0,1.485344648E0
1.430891511E0,-4.007977992E-2,9.653244972E0,1.500299811E0
1.433126924E0,-4.905286431E-2,9.667601585E0,1.514058471E0
1.435363679E0,-3.948157281E-2,9.672387123E0,1.485942841E0
1.437600496E0,-3.469592705E-2,9.686744690E0,1.485942841E0
1.439838350E0,-1.016949583E-2,9.710074425E0,1.495514154E0
1.442073945E0,-5.383851007E-3,9.719645500E0,1.514656782E0
1.444310762E0,0.000000000E0,9.748359680E0,1.519442320E0
1.446544465E0,0.000000000E0,9.762716293E0,1.524227977E0
1.448772920E0,0.000000000E0,9.771689415E0,1.529013634E0
1.451021028E0,-9.571290575E-3,9.762716293E0,1.529013634E0
1.453258027E0,-1.974078640E-2,9.767501831E0,1.561915040E0
1.455497774E0,-2.871387079E-2,9.777072906E0,1.566700578E0
1.457732637E0,-3.828516230E-2,9.777072906E0,1.561915040E0
1.459967927E0,-6.759724021E-2,9.763314247E0,1.575673699E0
1.462204805E0,-7.298108935E-2,9.744172096E0,1.609173179E0
1.464441255E0,-1.160518974E-1,9.754341125E0,1.608574986E0
1.466678132E0,-1.304088384E-1,9.759127617E0,1.637288928E0
1.468914766E0,-1.351944804E-1,9.763913155E0,1.666002750E0
1.471151765E0,-1.740778536E-1,9.745368004E0,1.679761529E0
1.473388643E0,-1.698904037E-1,9.720842361E0,1.708475351E0
1.475626192E0,-1.842473447E-1,9.731011391E0,1.703689694E0
1.477861726E0,-1.986042857E-1,9.711869240E0,1.708475351E0
1.480098604E0,-2.135594189E-1,9.711869240E0,1.731805444E0
1.482335115E0,-2.183450609E-1,9.702297211E0,1.774876237E0
1.484569001E0,-1.998006850E-1,9.682557106E0,1.794018745E0
1.486796785E0,-1.896311939E-1,9.687940598E0,1.756331801E0
1.489045381E0,-1.710868180E-1,9.692128181E0,1.775474429E0
1.491282747E0,-1.519442350E-1,9.667601585E0,1.780260086E0
1.493523225E0,-1.471585929E-1,9.653244972E0,1.761117458E0
1.495754060E0,-1.423729509E-1,9.662816048E0,1.761117458E0
1.497985261E0,-1.184447184E-1,9.648459435E0,1.752144337E0
1.500229158E0,-1.136590764E-1,9.648459435E0,1.723430514E0
1.502467012E0,-1.088734269E-1,9.653244972E0,1.718644857E0
1.504704622E0,-9.391828626E-2,9.667003632E0,1.718644857E0
1.506939424E0,-6.520441920E-2,9.676574707E0,1.709671736E0
1.509176301E0,-4.127619043E-2,9.675976753E0,1.719243050E0
1.511411347E0,-4.546362907E-2,9.680762291E0,1.695314884E0
1.513638154E0,-3.110669367E-2,9.704689980E0,1.681556106E0
1.515886384E0,-1.615155302E-2,9.733404160E0,1.648056626E0
1.518122652E0,-1.615155302E-2,9.723833084E0,1.648056626E0
1.520359041E0,-1.136590727E-2,9.723833084E0,1.643270969E0
1.522582002E0,-1.136590727E-2,9.709476471E0,1.633699656E0
1.524833528E0,-1.196411322E-3,9.733404160E0,1.614557028E0
1.527070588E0,-1.196411322E-3,9.723833084E0,1.581655741E0
1.529311799E0,-5.982056726E-3,9.719047546E0,1.595414519E0
1.531543916E0,-1.555334684E-2,9.719645500E0,1.576271892E0
1.533780427E0,-2.512463741E-2,9.705288887E0,1.547558069E0
1.536016756E0,-5.383851007E-2,9.691530228E0,1.542772412E0
1.538253816E0,-5.862415582E-2,9.681958199E0,1.509272933E0
1.540490632E0,-6.340979785E-2,9.681958199E0,1.528415442E0
1.542727266E0,-7.298108935E-2,9.692128181E0,1.499701619E0
1.544964387E0,-1.016949639E-1,9.678369522E0,1.490130305E0
1.547202058E0,-9.690931439E-2,9.682557106E0,1.499701619E0
1.549437471E0,-8.733802289E-2,9.672985077E0,1.494915962E0
1.551674287E0,-1.016949639E-1,9.683155060E0,1.475773335E0
1.553910738E0,-9.152546525E-2,9.711270332E0,1.504487276E0
1.556147737E0,-1.250249892E-1,9.726225853E0,1.489532113E0
1.558384736E0,-1.154536903E-1,9.716654778E0,1.508674622E0
1.560618257E0,-1.489532143E-1,9.731609344E0,1.508674622E0
1.562846162E0,-1.435693651E-1,9.759725571E0,1.503889084E0
1.565095613E0,-1.585244983E-1,9.745966911E0,1.522433400E0
1.567331453E0,-1.489532143E-1,9.717252731E0,1.494317770E0
1.569571077E0,-1.824527234E-1,9.741181374E0,1.517647743E0
1.571804963E0,-2.063809484E-1,9.713065147E0,1.488933921E0
1.574042940E0,-1.872383654E-1,9.713065147E0,1.503290772E0
1.576278535E0,-1.974078715E-1,9.703494072E0,1.498505235E0
1.578515108E0,-2.021935135E-1,9.698708534E0,1.512862086E0
1.580748872E0,-2.075773627E-1,9.674779892E0,1.517647743E0
1.582977693E0,-2.069791555E-1,9.684351921E0,1.498505235E0
1.585225313E0,-1.932204217E-1,9.674779892E0,1.517647743E0
1.587462129E0,-2.123630047E-1,9.655637741E0,1.517647743E0
1.589701631E0,-2.075773627E-1,9.650852203E0,1.493719578E0
1.591935518E0,-2.021935135E-1,9.674779892E0,1.479362607E0
1.594169465E0,-2.069791555E-1,9.669994354E0,1.484148264E0
1.596397737E0,-2.159522474E-1,9.689735413E0,1.460219979E0
1.598646516E0,-2.207378894E-1,9.713663101E0,1.431506157E0
1.600883699E0,-2.009970993E-1,9.717850685E0,1.426720500E0
1.603121980E0,-1.866401732E-1,9.722636223E0,1.412961721E0
1.605356111E0,-2.009970993E-1,9.723235130E0,1.421934843E0
1.607592683E0,-1.956132501E-1,9.751948357E0,1.398604870E0
1.609829622E0,-1.956132501E-1,9.737591743E0,1.389033556E0
1.612066377E0,-1.956132501E-1,9.737591743E0,1.393819213E0
1.614303132E0,-1.764706671E-1,9.732208252E0,1.365105271E0
1.616540010E0,-2.195414752E-1,9.742377281E0,1.359721422E0
1.618777498E0,-2.003988922E-1,9.732806206E0,1.331605792E0
1.621013032E0,-2.003988922E-1,9.708877563E0,1.341177106E0
1.623249727E0,-2.195414752E-1,9.709476471E0,1.331605792E0
1.625486543E0,-2.105683982E-1,9.690333366E0,1.312463164E0
1.627723604E0,-2.153540403E-1,9.690333366E0,1.312463164E0
1.629960176E0,-2.350948304E-1,9.652048111E0,1.322034478E0
1.632196687E0,-2.297109663E-1,9.661619186E0,1.326820135E0
1.634433748E0,-2.350948304E-1,9.647262573E0,1.345962763E0
1.636671358E0,-2.446661144E-1,9.656833649E0,1.350150228E0
1.638907258E0,-2.261217386E-1,9.647262573E0,1.388435364E0
1.641144014E0,-2.261217386E-1,9.641879082E0,1.412363529E0
1.643380647E0,-2.069791555E-1,9.637093544E0,1.393819213E0
1.645618562E0,-1.830509305E-1,9.631709099E0,1.422533035E0
1.647850923E0,-1.878365725E-1,9.641280174E0,1.446461320E0
1.650078767E0,-1.884347796E-1,9.641280174E0,1.451246977E0
1.652327302E0,-1.740778536E-1,9.626923561E0,1.470389485E0
1.654565401E0,-1.645065546E-1,9.645467758E0,1.475175142E0
1.656803987E0,-1.645065546E-1,9.655039787E0,1.503889084E0
1.659037813E0,-1.740778536E-1,9.659825325E0,1.498505235E0
1.661274141E0,-1.645065546E-1,9.664610863E0,1.508674622E0
1.663511445E0,-1.597209126E-1,9.659825325E0,1.518245935E0
1.665748018E0,-1.501496136E-1,9.655039787E0,1.503889084E0
1.667984834E0,-1.453639716E-1,9.644869804E0,1.527817249E0
1.670221650E0,-1.405783296E-1,9.644869804E0,1.518245935E0
1.672459443E0,-1.405783296E-1,9.640084267E0,1.508674622E0
1.674694978E0,-1.357926875E-1,9.654440880E0,1.532602906E0
1.676931611E0,-1.070788130E-1,9.630513191E0,1.504487276E0
1.679168123E0,-9.272187948E-2,9.649057388E0,1.480558991E0
1.681405183E0,-9.750752151E-2,9.658628464E0,1.499701619E0
1.683640047E0,-6.400800496E-2,9.649057388E0,1.494915962E0
1.685871553E0,-5.443671346E-2,9.634101868E0,1.490130305E0
1.688115693E0,-4.486542568E-2,9.634101868E0,1.471585870E0
1.690353242E0,-3.529413417E-2,9.624530792E0,1.442872047E0
1.692590547E0,-2.512463741E-2,9.624530792E0,1.433300734E0
1.694825410E0,-1.555334684E-2,9.619745255E0,1.400399446E0
1.697062166E0,-5.982056726E-3,9.610174179E0,1.390828133E0
1.699299043E0,2.991028363E-3,9.595816612E0,1.400399446E0
1.701535920E0,-1.196411322E-3,9.619745255E0,1.400399446E0
1.703772615E0,3.589233849E-3,9.595816612E0,1.366899967E0
1.706009553E0,2.751746029E-2,9.581459999E0,1.343569875E0
1.708247285E0,3.708875179E-2,9.590433121E0,1.348355532E0
1.710482881E0,3.230310604E-2,9.600004196E0,1.357926846E0
1.712718049E0,3.230310604E-2,9.600004196E0,1.338784218E0
1.714949617E0,4.666004330E-2,9.595218658E0,1.348355532E0
1.717194063E0,3.290131316E-2,9.619147301E0,1.338784218E0
1.719429841E0,2.273181453E-2,9.614361763E0,1.362712502E0
1.721668062E0,8.374879137E-3,9.605388641E0,1.357328653E0
1.723903108E0,8.973085321E-3,9.638887405E0,1.347757339E0
1.726141328E0,-1.974078640E-2,9.620343208E0,1.357328653E0
1.728376863E0,-5.383851007E-2,9.610772133E0,1.366301775E0
1.730613313E0,-6.759724021E-2,9.635298729E0,1.366301775E0
1.732849947E0,-8.733802289E-2,9.640084267E0,1.399801254E0
1.735086763E0,-1.202393398E-1,9.664610863E0,1.418345571E0
1.737323518E0,-1.447657645E-1,9.631111145E0,1.432702541E0
1.739560457E0,-1.543370634E-1,9.650253296E0,1.436890006E0
1.741797334E0,-1.782652885E-1,9.646066666E0,1.436890006E0
1.744035005E0,-2.165504545E-1,9.680164337E0,1.479362607E0
1.746270967E0,-2.309073806E-1,9.684949875E0,1.479362607E0
1.748507539E0,-2.309073806E-1,9.689735413E0,1.484148264E0
1.750740937E0,-2.548356056E-1,9.689735413E0,1.483550072E0
1.752969087E0,-2.739782035E-1,9.690333366E0,1.502692580E0
1.755217439E0,-2.883351147E-1,9.709476471E0,1.502692580E0
1.757454317E0,-2.739782035E-1,9.709476471E0,1.493121386E0
1.759694307E0,-2.739782035E-1,9.709476471E0,1.493121386E0
1.761928926E0,-2.979064286E-1,9.700503349E0,1.473978758E0
1.764164461E0,-3.122633696E-1,9.700503349E0,1.492523074E0
1.766401094E0,-3.218346536E-1,9.676574707E0,1.468594909E0
1.768637849E0,-3.218346536E-1,9.690931320E0,1.454237938E0
1.770874727E0,-3.170489967E-1,9.671789169E0,1.478166223E0
1.773111604E0,-3.218346536E-1,9.667003632E0,1.463809252E0
1.775348298E0,-2.931207716E-1,9.662218094E0,1.469193101E0
1.777585237E0,-2.931207716E-1,9.667003632E0,1.445264935E0
1.779819978E0,-2.979064286E-1,9.667003632E0,1.440479279E0
1.782046541E0,-2.787638307E-1,9.675976753E0,1.454836130E0
1.784295137E0,-2.739782035E-1,9.675976753E0,1.454836130E0
1.786531892E0,-2.548356056E-1,9.671191216E0,1.450648785E0
1.788772737E0,-2.404786795E-1,9.656235695E0,1.441077471E0
1.791005586E0,-2.255235314E-1,9.689735413E0,1.426720500E0
1.793242158E0,-2.446661144E-1,9.714262009E0,1.426720500E0
1.795478975E0,-2.207378894E-1,9.718449593E0,1.445863128E0
1.797716707E0,-2.159522474E-1,9.713663101E0,1.431506157E0
1.799952302E0,-2.159522474E-1,9.689735413E0,1.436291814E0
1.802188875E0,-2.201396823E-1,9.708877563E0,1.407577872E0
1.804425447E0,-2.350948304E-1,9.689735413E0,1.431506157E0
1.806662568E0,-2.303091735E-1,9.684949875E0,1.426720500E0
1.808899446E0,-2.356930375E-1,9.689735413E0,1.460219979E0
1.811136201E0,-2.213360965E-1,9.680164337E0,1.460219979E0
1.813373079E0,-2.356930375E-1,9.670592308E0,1.465005636E0
1.815610811E0,-2.261217386E-1,9.661021233E0,1.450648785E0
1.817843171E0,-2.267199457E-1,9.641879082E0,1.455434322E0
1.820070222E0,-2.261217386E-1,9.665806770E0,1.426720500E0
1.822319246E0,-2.261217386E-1,9.661021233E0,1.436291814E0
1.824556550E0,-2.117647976E-1,9.646664619E0,1.436291814E0
1.826796358E0,-2.069791555E-1,9.641879082E0,1.431506157E0
1.829030000E0,-2.219343036E-1,9.641879082E0,1.455434322E0
1.831266816E0,-1.830509305E-1,9.646066666E0,1.456032634E0
1.833504609E0,-1.788634956E-1,9.641280174E0,1.460818172E0
1.835740205E0,-1.926222295E-1,9.650852203E0,1.465005636E0
1.837977083E0,-1.974078715E-1,9.660423279E0,1.455434322E0
1.840213594E0,-2.117647976E-1,9.656235695E0,1.460219979E0
1.842450654E0,-2.075773627E-1,9.632308006E0,1.445863128E0
1.844687227E0,-2.213360965E-1,9.651450157E0,1.460219979E0
1.846922822E0,-2.117647976E-1,9.641879082E0,1.436291814E0
1.849156160E0,-2.021935135E-1,9.665208817E0,1.455434322E0
1.851398408E0,-1.974078715E-1,9.650852203E0,1.450648785E0
1.853634187E0,-2.069791555E-1,9.661021233E0,1.445863128E0
1.855871980E0,-1.824527234E-1,9.674779892E0,1.432104349E0
1.858107637E0,-1.968096644E-1,9.684949875E0,1.408176184E0
1.860345003E0,-1.968096644E-1,9.698708534E0,1.422533035E0
1.862579561E0,-2.063809484E-1,9.689735413E0,1.408176184E0
1.864817781E0,-1.866401732E-1,9.713065147E0,1.389033556E0
1.867054353E0,-1.962114573E-1,9.718449593E0,1.379462242E0
1.869292573E0,-1.908276081E-1,9.732806206E0,1.365105271E0
1.871528047E0,-1.998006850E-1,9.751948357E0,1.341177106E0
1.873764924E0,-2.291127741E-1,9.733404160E0,1.340578914E0
1.876001436E0,-2.189432681E-1,9.752547264E0,1.317248821E0
1.878238252E0,-2.333002090E-1,9.766903877E0,1.311864972E0
1.880475007E0,-2.285145670E-1,9.742975235E0,1.312463164E0
1.882711580E0,-2.237289101E-1,9.728618622E0,1.302891970E0
1.884945710E0,-2.237289101E-1,9.738189697E0,1.283749342E0
1.887174226E0,-2.476571500E-1,9.738788605E0,1.302293777E0
1.889421846E0,-2.572284341E-1,9.734002113E0,1.302293777E0
1.891658662E0,-2.763710022E-1,9.762716293E0,1.297508121E0
1.893898226E0,-3.044866920E-1,9.772886276E0,1.296909928E0
1.896132295E0,-3.332005441E-1,9.792626381E0,1.320838094E0
1.898368867E0,-3.625126183E-1,9.773484230E0,1.353739381E0
1.900605623E0,-3.960121572E-1,9.769296646E0,1.353739381E0
1.902842439E0,-4.295116663E-1,9.774680138E0,1.353141189E0
1.905080049E0,-4.492524564E-1,9.774680138E0,1.367498159E0
1.907315889E0,-4.636093974E-1,9.769894600E0,1.395613790E0
1.909552766E0,-4.875376225E-1,9.770493507E0,1.390828133E0
1.911789278E0,-4.977070987E-1,9.756135941E0,1.405185103E0
1.914026094E0,-5.024927258E-1,9.741779327E0,1.395613790E0
1.916262849E0,-5.024927258E-1,9.741779327E0,1.395613790E0
1.918499422E0,-5.359922647E-1,9.761520386E0,1.399801254E0
1.920736543E0,-5.216353536E-1,9.747162819E0,1.409372568E0
1.922974092E0,-5.216353536E-1,9.742377281E0,1.390828133E0
1.925209993E0,-5.120640397E-1,9.742377281E0,1.395613790E0
1.927446748E0,-5.114658475E-1,9.775876999E0,1.386042476E0
1.929683381E0,-5.156532526E-1,9.799804688E0,1.371685624E0
1.931921358E0,-5.060819983E-1,9.814162254E0,1.376471281E0
1.934156831E0,-4.624129832E-1,9.823135376E0,1.362114310E0
1.936393342E0,-4.815555513E-1,9.832706451E0,1.357328653E0
1.938630525E0,-4.719842672E-1,9.837491989E0,1.319641709E0
1.940868074E0,-4.570291340E-1,9.856635094E0,1.290927768E0
1.943103792E0,-4.181457460E-1,9.870393753E0,1.286142230E0
1.945340425E0,-4.085744619E-1,9.894321442E0,1.286740422E0
1.947576814E0,-3.888336718E-1,9.898509026E0,1.262812138E0
1.949812593E0,-3.840480447E-1,9.893723488E0,1.277169108E0
1.952045320E0,-3.601198196E-1,9.888937950E0,1.262812138E0
1.954287324E0,-3.744767308E-1,9.884152412E0,1.238883972E0
1.956524385E0,-3.409772217E-1,9.878767967E0,1.234696507E0
1.958763216E0,-3.314059377E-1,9.873982430E0,1.239482164E0
1.960997468E0,-3.224328458E-1,9.859625816E0,1.239482164E0
1.963234041E0,-3.176472187E-1,9.859625816E0,1.244267821E0
1.965470674E0,-3.128615618E-1,9.859625816E0,1.244267821E0
1.967707979E0,-3.170489967E-1,9.869196892E0,1.234696507E0
1.969944612E0,-3.032902777E-1,9.849455833E0,1.263410330E0
1.972181428E0,-2.943171859E-1,9.825528145E0,1.273579836E0
1.974418428E0,-2.943171859E-1,9.830313683E0,1.292124271E0
1.976655977E0,-3.044866920E-1,9.806385040E0,1.311266780E0
1.978891023E0,-2.757728100E-1,9.815358162E0,1.321436286E0
1.981126070E0,-2.853440940E-1,9.805787086E0,1.339980721E0
1.983364412E0,-2.859423161E-1,9.791430473E0,1.349551916E0
1.985601777E0,-3.050848842E-1,9.796813965E0,1.363908887E0
1.987839143E0,-3.002992272E-1,9.786644936E0,1.387837172E0
1.990075471E0,-3.008974493E-1,9.777072906E0,1.406979680E0
1.992312227E0,-2.865405083E-1,9.762716293E0,1.430907965E0
1.994549715E0,-2.967100143E-1,9.767501831E0,1.454836130E0
1.996785310E0,-3.110669553E-1,9.757930756E0,1.459023595E0
1.999022127E0,-3.254238665E-1,9.757930756E0,1.463809252E0
2.001258760E0,-3.158525825E-1,9.762716293E0,1.502094388E0
2.003496797E0,-3.355933726E-1,9.748359680E0,1.497308731E0
2.005732393E0,-3.212364316E-1,9.748359680E0,1.521237016E0
2.007966340E0,-3.164508045E-1,9.734002113E0,1.521237016E0
2.010191377E0,-3.020938635E-1,9.752547264E0,1.516451359E0
2.012429231E0,-2.781656384E-1,9.742975235E0,1.517049551E0
2.014668001E0,-2.679961324E-1,9.761520386E0,1.507478237E0
2.016916414E0,-2.440679073E-1,9.766305923E0,1.497906923E0
2.019143708E0,-2.249253243E-1,9.771091461E0,1.465005636E0
2.021392427E0,-1.866401732E-1,9.765707016E0,1.455434322E0
2.023626070E0,-1.722832322E-1,9.755537987E0,1.460818172E0
2.025865938E0,-1.525424421E-1,9.774680138E0,1.427318692E0
2.028100068E0,-1.381855011E-1,9.760323524E0,1.417747378E0
2.030337617E0,-8.554340899E-2,9.759725571E0,1.380060434E0
2.032573274E0,-8.015955985E-2,9.764511108E0,1.365703583E0
2.034810274E0,-4.666004330E-2,9.763913155E0,1.356730461E0
2.037046541E0,-2.691925503E-2,9.783055305E0,1.290329576E0
2.039283418E0,-2.392822644E-3,9.787840843E0,1.285543919E0
2.041520112E0,2.392822644E-3,9.783055305E0,1.252044439E0
2.043756807E0,1.196411345E-2,9.787840843E0,1.238285661E0
2.045991487E0,1.674975827E-2,9.768698692E0,1.200000525E0
2.048220857E0,7.776673418E-3,9.797411919E0,1.200000525E0
2.050467012E0,2.691925503E-2,9.802198410E0,1.195214868E0
2.052703828E0,2.991028363E-3,9.806983948E0,1.190429211E0
2.054943269E0,-6.580262445E-3,9.792626381E0,1.180858016E0
2.057177522E0,-2.093719877E-2,9.807581902E0,1.180259824E0
2.059414338E0,-5.443671346E-2,9.803394318E0,1.189831018E0
2.061651033E0,-5.443671346E-2,9.807581902E0,1.208973646E0
2.063887910E0,-1.070788130E-1,9.818349838E0,1.203589797E0
2.066125398E0,-1.262213886E-1,9.818349838E0,1.246062398E0
2.068360994E0,-1.746760458E-1,9.809376717E0,1.250848055E0
2.070597871E0,-2.123630047E-1,9.829116821E0,1.250249863E0
2.072834688E0,-2.560320199E-1,9.829715729E0,1.283151150E0
2.075072481E0,-2.895315289E-1,9.825528145E0,1.292722464E0
2.077308015E0,-3.140579760E-1,9.815957069E0,1.330409408E0
2.079544588E0,-3.284149170E-1,9.811170578E0,1.349551916E0
2.081781404E0,-3.625126183E-1,9.792626381E0,1.392024517E0
2.084018892E0,-3.583251834E-1,9.797411919E0,1.411167145E0
2.086253633E0,-3.774677813E-1,9.778269768E0,1.439282775E0
2.088491670E0,-3.780659735E-1,9.763913155E0,1.434497118E0
2.090728242E0,-3.583251834E-1,9.772886276E0,1.435095429E0
2.092962740E0,-3.535395563E-1,9.777671814E0,1.439880967E0
2.095190401E0,-3.637090325E-1,9.753743172E0,1.463809252E0
2.097438692E0,-3.349951804E-1,9.753743172E0,1.444666624E0
2.099675752E0,-3.152543902E-1,9.772287369E0,1.430309772E0
2.101916170E0,-2.913261652E-1,9.786644936E0,1.440479279E0
2.104148897E0,-2.667997181E-1,9.814760208E0,1.440479279E0
2.106385713E0,-2.476571500E-1,9.809376717E0,1.435693622E0
2.108622285E0,-2.189432681E-1,9.809376717E0,1.426720500E0
2.110859346E0,-1.902294010E-1,9.813564301E0,1.402792215E0
2.113095308E0,-1.848455518E-1,9.808777809E0,1.369890928E0
2.115330232E0,-1.561316848E-1,9.813564301E0,1.355534077E0
2.117569490E0,-1.609173268E-1,9.794421196E0,1.341177106E0
2.119807100E0,-1.663011760E-1,9.770493507E0,1.336391449E0
2.122043489E0,-1.663011760E-1,9.775279045E0,1.322034478E0
2.124279512E0,-1.950150430E-1,9.761520386E0,1.326820135E0
2.126516084E0,-2.093719840E-1,9.752547264E0,1.293320656E0
2.128753206E0,-2.141576260E-1,9.752547264E0,1.298106313E0
2.130990266E0,-2.434697002E-1,9.738189697E0,1.335793257E0
2.133226777E0,-2.578266263E-1,9.724431038E0,1.311864972E0
2.135463655E0,-2.769692242E-1,9.695717812E0,1.307079315E0
2.137701265E0,-2.919243574E-1,9.677172661E0,1.302293777E0
2.139936677E0,-3.164508045E-1,9.658030510E0,1.320838094E0
2.142173494E0,-3.499503136E-1,9.649057388E0,1.316052437E0
2.144410066E0,-3.499503136E-1,9.629914284E0,1.320838094E0
2.146648164E0,-3.786641955E-1,9.649655342E0,1.306481123E0
2.148881258E0,-3.744767308E-1,9.620942116E0,1.335195065E0
2.151110567E0,-3.792623878E-1,9.606584549E0,1.335195065E0
2.153357088E0,-3.930211067E-1,9.635298729E0,1.329811215E0
2.155594881E0,-3.936193287E-1,9.625727654E0,1.325025558E0
2.157832978E0,-4.073780477E-1,9.640682220E0,1.334596872E0
2.160067415E0,-3.978067636E-1,9.631111145E0,1.310668588E0
2.162304109E0,-4.025924206E-1,9.654440880E0,1.329811215E0
2.164540742E0,-4.073780477E-1,9.664012909E0,1.348953724E0
2.166777559E0,-4.169493318E-1,9.659825325E0,1.339382529E0
2.169014253E0,-4.025924206E-1,9.659226418E0,1.348953724E0
2.171251313E0,-4.121637046E-1,9.659226418E0,1.368096352E0
2.173489290E0,-4.121637046E-1,9.655039787E0,1.353739381E0
2.175724885E0,-4.217349887E-1,9.664610863E0,1.363310695E0
2.177958956E0,-4.217349887E-1,9.659825325E0,1.368096352E0
2.180186800E0,-4.271188378E-1,9.650253296E0,1.367498159E0
2.182434480E0,-4.360919297E-1,9.678967476E0,1.377069473E0
2.184671541E0,-4.217349887E-1,9.673583984E0,1.396211982E0
2.186911103E0,-4.217349887E-1,9.674181938E0,1.368096352E0
2.189145356E0,-4.121637046E-1,9.678369522E0,1.368096352E0
2.191383027E0,-4.019941986E-1,9.702297211E0,1.382453322E0
2.193618562E0,-3.882354796E-1,9.692726135E0,1.392024517E0
2.195855622E0,-3.786641955E-1,9.668199539E0,1.382453322E0
2.198093355E0,-3.738785386E-1,9.682557106E0,1.387238979E0
2.200328523E0,-3.690928817E-1,9.663414001E0,1.372882009E0
2.202565401E0,-3.601198196E-1,9.668199539E0,1.406381488E0
2.204801790E0,-3.690928817E-1,9.663414001E0,1.377667665E0
2.207039399E0,-3.451646566E-1,9.662816048E0,1.392622828E0
2.209277070E0,-3.409772217E-1,9.643673897E0,1.430309772E0
2.211512422E0,-3.314059377E-1,9.634101868E0,1.416550994E0
2.213749238E0,-3.218346536E-1,9.658030510E0,1.406979680E0
2.215985933E0,-3.074777126E-1,9.667003632E0,1.435693622E0
2.218223604E0,-3.074777126E-1,9.671789169E0,1.430907965E0
2.220459443E0,-3.026920557E-1,9.681360245E0,1.464407444E0
2.222696199E0,-3.266202807E-1,9.700503349E0,1.473380566E0
2.224932954E0,-3.266202807E-1,9.700503349E0,1.478166223E0
2.227171113E0,-3.649054468E-1,9.710672379E0,1.496710539E0
2.229406404E0,-3.840480447E-1,9.720243454E0,1.525424480E0
2.231643037E0,-4.127618968E-1,9.744770050E0,1.539183140E0
2.233878084E0,-4.169493318E-1,9.759127617E0,1.558325768E0
2.236110994E0,-4.456632137E-1,9.769296646E0,1.563111424E0
2.238353242E0,-4.552344978E-1,9.787840843E0,1.605584025E0
2.240589998E0,-5.036891699E-1,9.783653259E0,1.638485312E0
2.242828279E0,-5.180460811E-1,9.784252167E0,1.652842283E0
2.245064607E0,-5.371887088E-1,9.779465675E0,1.628913999E0
2.247300020E0,-5.712863803E-1,9.760921478E0,1.652244091E0
2.249537141E0,-5.910272002E-1,9.736993790E0,1.671386600E0
2.251773653E0,-6.101697683E-1,9.723235130E0,1.671386600E0
2.254010774E0,-6.107679605E-1,9.704092026E0,1.661815286E0
2.256247224E0,-6.155536175E-1,9.684949875E0,1.690529227E0
2.258483797E0,-5.874379873E-1,9.650852203E0,1.657029629E0
2.260720857E0,-5.826523304E-1,9.631709099E0,1.647458434E0
2.262956697E0,-5.778666735E-1,9.608379364E0,1.619342685E0
2.265187227E0,-5.491527915E-1,9.598209381E0,1.609771490E0
2.267430879E0,-5.252245665E-1,9.574281693E0,1.557727575E0
2.269667451E0,-5.204389095E-1,9.569496155E0,1.557727575E0
2.271906282E0,-4.917250574E-1,9.573683739E0,1.529611826E0
2.274141389E0,-4.528416991E-1,9.573683739E0,1.482353687E0
2.276378145E0,-4.336991012E-1,9.573084831E0,1.448854089E0
2.278614961E0,-4.378865361E-1,9.573683739E0,1.410568953E0
2.280852449E0,-4.085744619E-1,9.582656860E0,1.377667665E0
2.283087984E0,-4.037888348E-1,9.597013474E0,1.358525038E0
2.285324617E0,-4.085744619E-1,9.601799011E0,1.368096352E0
2.287561494E0,-3.930211067E-1,9.621540070E0,1.296311617E0
2.289799531E0,-3.840480447E-1,9.606584549E0,1.292124271E0
2.292035188E0,-3.738785386E-1,9.640084267E0,1.277767301E0
2.294272004E0,-3.780659735E-1,9.626325607E0,1.244267821E0
2.296508760E0,-3.684946895E-1,9.620942116E0,1.225125194E0
2.298743562E0,-3.439682424E-1,9.640084267E0,1.187438250E0
2.300971224E0,-3.487538993E-1,9.644869804E0,1.158724308E0
2.303223054E0,-3.439682424E-1,9.635896683E0,1.134796143E0
2.305455232E0,-3.248256743E-1,9.640084267E0,1.130010486E0
2.307695284E0,-3.248256743E-1,9.620942116E0,1.101894855E0
2.309927827E0,-3.337987661E-1,9.640682220E0,1.077966571E0
2.312165681E0,-3.337987661E-1,9.626325607E0,1.068395257E0
2.314402559E0,-3.194418252E-1,9.611968994E0,1.044467092E0
2.316640352E0,-3.194418252E-1,9.607182503E0,1.049252748E0
2.318875886E0,-3.194418252E-1,9.602396965E0,1.039681435E0
2.321112520E0,-3.290131092E-1,9.592825890E0,1.030110121E0
2.323349031E0,-3.296113312E-1,9.568898201E0,1.015753269E0
2.325586152E0,-3.248256743E-1,9.554540634E0,1.025324464E0
2.327820039E0,-3.152543902E-1,9.535398483E0,1.006780148E0
2.330046968E0,-3.349951804E-1,9.530612946E0,1.015753269E0
2.332293184E0,-3.403790295E-1,9.487542152E0,1.034895778E0
2.334534151E0,-3.266202807E-1,9.454042435E0,1.030708313E0
2.336772920E0,-3.218346536E-1,9.434899330E0,1.011565804E0
2.339007417E0,-3.314059377E-1,9.439684868E0,1.049252748E0
2.341243074E0,-3.176472187E-1,9.396614075E0,1.054636598E0
2.343479890E0,-3.134597540E-1,9.358329773E0,1.059422255E0
2.345716768E0,-3.092723191E-1,9.353543282E0,1.068993568E0
2.347953584E0,-2.901297510E-1,9.319445610E0,1.045065284E0
2.350190645E0,-2.667997181E-1,9.314062119E0,1.074377418E0
2.352427949E0,-2.476571500E-1,9.280562401E0,1.069591761E0
2.354663789E0,-2.147558331E-1,9.260822296E0,1.065404296E0
2.356900545E0,-2.009970993E-1,9.217751503E0,1.094118118E0
2.359137178E0,-1.866401732E-1,9.222537041E0,1.079761267E0
2.361374910E0,-1.244267747E-1,9.197412491E0,1.080359459E0
2.363610567E0,-1.244267747E-1,9.202198029E0,1.080359459E0
2.365846772E0,-7.178468257E-2,9.201599121E0,1.095314622E0
2.368080781E0,-4.785645381E-2,9.201001167E0,1.071386337E0
2.370322053E0,1.435693540E-2,9.186046600E0,1.067198873E0
2.372557832E0,4.785645381E-2,9.184849739E0,1.101296663E0
2.374795504E0,8.075776696E-2,9.175278664E0,1.106082320E0
2.377030916E0,1.429711580E-1,9.169296265E0,1.116251707E0
2.379267732E0,1.860419661E-1,9.173483849E0,1.145563841E0
2.381504548E0,2.428714931E-1,9.162715912E0,1.198205948E0
2.383741365E0,2.811566591E-1,9.152546883E0,1.222732425E0
2.385978303E0,3.044866920E-1,9.161520004E0,1.270588875E0
2.388216035E0,3.427718580E-1,9.174679756E0,1.289731383E0
2.390451631E0,3.756731451E-1,9.145368576E0,1.323829174E0
2.392688447E0,4.235295951E-1,9.163912773E0,1.357328653E0
2.394921053E0,4.426721931E-1,9.168100357E0,1.400399446E0
2.397147127E0,4.707878530E-1,9.162715912E0,1.462612867E0
2.399398347E0,4.462614357E-1,9.172286987E0,1.529013634E0
2.401635164E0,4.791627228E-1,9.175876617E0,1.610369682E0
2.403875764E0,4.833501875E-1,9.166305542E0,1.686939955E0
2.406110139E0,4.683950245E-1,9.170493126E0,1.762912035E0
2.408345674E0,4.492524564E-1,9.189635277E0,1.810768485E0
2.410582307E0,4.193421602E-1,9.151947975E0,1.886740685E0
2.412818697E0,3.948157430E-1,9.161520004E0,1.977069736E0
2.415055513E0,4.001995921E-1,9.213563919E0,1.991426587E0
2.417292268E0,4.480560422E-1,9.236893654E0,2.044068813E0
2.419529512E0,4.863412082E-1,9.273982048E0,2.091925144E0
2.421766389E0,5.012963414E-1,9.321240425E0,2.134995937E0
2.424003938E0,5.258227587E-1,9.363713264E0,2.168495417E0
2.426239412E0,5.108676553E-1,9.364311218E0,2.206780672E0
2.428476289E0,5.353940725E-1,9.373284340E0,2.187638044E0
2.430713045E0,5.742774606E-1,9.425328255E0,2.178664923E0
2.432947663E0,5.748756528E-1,9.463613510E0,2.154736757E0
2.435174470E0,6.329016089E-1,9.496515274E0,2.155334949E0
2.437423006E0,6.484549642E-1,9.548559189E0,2.140978098E0
2.439659944E0,6.675975323E-1,9.558130264E0,2.117049932E0
2.441900850E0,6.586244106E-1,9.558130264E0,2.102692842E0
2.444130281E0,6.771687865E-1,9.562915802E0,2.131406784E0
2.446358064E0,6.777670383E-1,9.562915802E0,2.107478619E0
2.448606294E0,6.819544435E-1,9.538987160E0,2.097907305E0
2.450843477E0,7.016952634E-1,9.552745819E0,2.088934183E0
2.453083284E0,7.639086246E-1,9.547362328E0,2.065604210E0
2.455317109E0,7.878368497E-1,9.552147865E0,2.041675806E0
2.457553926E0,8.458628058E-1,9.560523033E0,2.056631088E0
2.459791475E0,8.650053740E-1,9.584450722E0,2.033301115E0
2.462027315E0,9.086744189E-1,9.602995872E0,2.018944025E0
2.464264070E0,9.714859724E-1,9.625727654E0,2.005185366E0
2.466500215E0,9.954141974E-1,9.644271851E0,2.019542217E0
2.468737520E0,1.024726272E0,9.668199539E0,1.986641049E0
2.470974336E0,1.053440213E0,9.662816048E0,1.987239242E0
2.473211213E0,1.068395257E0,9.691530228E0,2.015953064E0
2.475447969E0,1.087537885E0,9.710074425E0,2.006381750E0
2.477685457E0,1.073180914E0,9.705288887E0,2.024926186E0
2.479921052E0,1.035493970E0,9.753743172E0,2.058425665E0
2.482157869E0,1.058824062E0,9.753145218E0,2.082353830E0
2.484394258E0,1.034895778E0,9.772886276E0,2.096112728E0
2.486631563E0,9.870393276E-1,9.759127617E0,2.105684042E0
2.488868135E0,9.726824164E-1,9.763913155E0,2.105085611E0
2.491105012E0,9.391828775E-1,9.774082184E0,2.105085611E0
2.493341951E0,9.391828775E-1,9.793225288E0,2.129014015E0
2.495579317E0,9.349954724E-1,9.817152977E0,2.142772675E0
2.497815156E0,9.254241586E-1,9.831509590E0,2.152343988E0
2.500051912E0,9.158528447E-1,9.841081619E0,2.161915302E0
2.502288545E0,8.871390224E-1,9.851250648E0,2.156531334E0
2.504526277E0,8.679963946E-1,9.851250648E0,2.146960020E0
2.506761873E0,8.739784956E-1,9.879964828E0,2.113460541E0
2.508998750E0,8.590233326E-1,9.870991707E0,2.113460541E0
2.511232698E0,8.207381964E-1,9.885947227E0,2.136790514E0
2.513462007E0,8.015955687E-1,9.871589661E0,2.112862349E0
2.515709443E0,7.537391186E-1,9.872786522E0,2.112862349E0
2.517945772E0,7.202396393E-1,9.872786522E0,2.121835470E0
2.520185151E0,6.771687865E-1,9.854840279E0,2.111665964E0
2.522419038E0,6.436693072E-1,9.860223770E0,2.073380709E0
2.524655977E0,5.814558864E-1,9.860821724E0,2.096710920E0
2.526892732E0,5.575276613E-1,9.861420631E0,2.106282234E0
2.529127168E0,5.138586760E-1,9.862018585E0,2.110469580E0
2.531357332E0,4.713860750E-1,9.862616539E0,2.085943222E0
2.533602754E0,4.378865361E-1,9.891928673E0,2.090728760E0
2.535839815E0,4.139583111E-1,9.872786522E0,2.071586132E0
2.538078584E0,3.852444589E-1,9.887741089E0,2.070987940E0
2.540313203E0,3.810569942E-1,9.911669731E0,2.061416626E0
2.542549715E0,3.571287692E-1,9.912267685E0,2.047059774E0
2.544786592E0,3.284149170E-1,9.922437668E0,2.041675806E0
2.547023652E0,3.002992272E-1,9.913464546E0,2.012962103E0
2.549261201E0,2.901297510E-1,9.889535904E0,1.993819475E0
2.551496797E0,2.662015259E-1,9.880562782E0,1.998605132E0
2.553733674E0,2.524427772E-1,9.885348320E0,1.960319996E0
2.555970430E0,2.374876440E-1,9.876375198E0,1.964507341E0
2.558207307E0,2.039881349E-1,9.853045464E0,1.926222205E0
2.560441072E0,1.896311939E-1,9.862616539E0,1.940579176E0
2.562668611E0,1.752742529E-1,9.853643417E0,1.907079697E0
2.564914704E0,1.561316848E-1,9.848857880E0,1.911865234E0
2.567143708E0,1.226321608E-1,9.844670296E0,1.911267042E0
2.569395723E0,1.130608693E-1,9.830313683E0,1.916052699E0
2.571627351E0,8.434699476E-2,9.802796364E0,1.849053741E0
2.573867159E0,5.982056633E-2,9.783653259E0,1.853839397E0
2.576101534E0,6.460621208E-2,9.769296646E0,1.829911113E0
2.578337800E0,5.024927482E-2,9.760323524E0,1.829911113E0
2.580574129E0,3.589234129E-2,9.765109062E0,1.796411633E0
2.582811006E0,4.067798331E-2,9.731609344E0,1.786840320E0
2.585048982E0,5.443671346E-2,9.688538551E0,1.753340840E0
2.587284700E0,3.529413417E-2,9.684351921E0,1.729412556E0
2.589521516E0,3.948157281E-2,9.631709099E0,1.715653777E0
2.591755220E0,4.007977992E-2,9.617950439E0,1.663011789E0
2.593980928E0,3.050848842E-2,9.603593826E0,1.634297848E0
2.596217318E0,5.922235921E-2,9.589237213E0,1.615753531E0
2.598457918E0,7.298108935E-2,9.550353050E0,1.582253933E0
2.600708040E0,7.776673883E-2,9.546165466E0,1.548754454E0
2.602945772E0,1.166501045E-1,9.545567513E0,1.544566989E0
2.605181306E0,1.208375469E-1,9.521639824E0,1.525424480E0
2.607415437E0,1.357926875E-1,9.550353050E0,1.487737536E0
2.609651582E0,1.411765367E-1,9.569496155E0,1.459023595E0
2.611888887E0,1.651047617E-1,9.559326172E0,1.435095429E0
2.614125642E0,1.752742529E-1,9.564111710E0,1.416550994E0
2.616362276E0,1.848455518E-1,9.559326172E0,1.411765337E0
2.618599092E0,1.848455518E-1,9.554540634E0,1.387837172E0
2.620836824E0,1.848455518E-1,9.554540634E0,1.368694544E0
2.623072481E0,1.854437590E-1,9.559925079E0,1.344766378E0
2.625309358E0,1.704886109E-1,9.531210899E0,1.301695466E0
2.627545869E0,1.657029688E-1,9.535996437E0,1.311266780E0
2.629782930E0,1.704886109E-1,9.526425362E0,1.316052437E0
2.632016816E0,1.609173268E-1,9.522237778E0,1.296909928E0
2.634245515E0,1.561316848E-1,9.527023315E0,1.301695466E0
2.636493074E0,1.465603858E-1,9.507881165E0,1.292124271E0
2.638730623E0,1.328016520E-1,9.531808853E0,1.287338614E0
2.640968904E0,1.226321608E-1,9.536594391E0,1.306481123E0
2.643203096E0,1.088734269E-1,9.556335449E0,1.305882931E0
2.645439912E0,9.930214286E-2,9.551549911E0,1.281954765E0
2.647677766E0,1.088734269E-1,9.537193298E0,1.287338614E0
2.649913545E0,8.494520187E-2,9.537791252E0,1.291526079E0
2.652150117E0,8.494520187E-2,9.542576790E0,1.286740422E0
2.654386934E0,7.058826834E-2,9.542576790E0,1.301097274E0
2.656624666E0,6.041877344E-2,9.518648148E0,1.315454245E0
2.658860322E0,6.520441920E-2,9.499505997E0,1.305882931E0
2.661094698E0,4.127619043E-2,9.504889488E0,1.310070395E0
2.663323885E0,5.503492057E-2,9.509077072E0,1.338784218E0
2.665570527E0,6.041877344E-2,9.509077072E0,1.301097274E0
2.667807344E0,7.477571070E-2,9.523433685E0,1.329811215E0
2.670046540E0,8.374879509E-2,9.508479118E0,1.348953724E0
2.672280977E0,8.853443712E-2,9.503693581E0,1.339382529E0
2.674518526E0,1.172483116E-1,9.512666702E0,1.368096352E0
2.676754304E0,1.507478207E-1,9.531210899E0,1.387837172E0
2.678990938E0,1.657029688E-1,9.555138588E0,1.397408366E0
2.681227449E0,2.087737769E-1,9.568299294E0,1.406979680E0
2.683464326E0,2.093719840E-1,9.582656860E0,1.402194023E0
2.685701387E0,2.662015259E-1,9.591629982E0,1.441077471E0
2.687937959E0,2.763710022E-1,9.610772133E0,1.431506157E0
2.690175081E0,2.757728100E-1,9.586245537E0,1.441077471E0
2.692412507E0,2.997010350E-1,9.605388641E0,1.460219979E0
2.694648103E0,3.379862010E-1,9.600004196E0,1.465603828E0
2.696884736E0,3.332005441E-1,9.585647583E0,1.470389485E0
2.699121004E0,3.278166950E-1,9.580862045E0,1.499103427E0
2.701356355E0,3.421736360E-1,9.599406242E0,1.536790371E0
2.703595003E0,3.469592929E-1,9.580264091E0,1.527817249E0
2.705832063E0,3.613162339E-1,9.584450722E0,1.546959877E0
2.708069795E0,3.900300860E-1,9.593423843E0,1.580459356E0
2.710303437E0,3.804588020E-1,9.613164902E0,1.580459356E0
2.712530183E0,4.043870270E-1,9.631709099E0,1.604387641E0
2.714778657E0,3.948157430E-1,9.641280174E0,1.623530149E0
2.717015596E0,3.858426511E-1,9.684351921E0,1.642074585E0
2.719256380E0,3.858426511E-1,9.693922997E0,1.661217093E0
2.721489229E0,3.762713671E-1,9.722636223E0,1.680359721E0
2.723725801E0,3.577269912E-1,9.732208252E0,1.679761529E0
2.725962617E0,3.290131092E-1,9.751948357E0,1.698904037E0
2.728200471E0,3.146561682E-1,9.756733894E0,1.694118381E0
2.730436433E0,2.757728100E-1,9.747760773E0,1.727019787E0
2.732672578E0,2.518445849E-1,9.748359680E0,1.726421595E0
2.734909334E0,2.279163599E-1,9.738788605E0,1.726421595E0
2.737146089E0,2.177468538E-1,9.719645500E0,1.731207132E0
2.739383088E0,1.794617027E-1,9.710672379E0,1.730608940E0
2.741619783E0,1.746760458E-1,9.711270332E0,1.725823283E0
2.743856660E0,1.555334777E-1,9.692128181E0,1.701895118E0
2.746094209E0,1.268195957E-1,9.678369522E0,1.682752490E0
2.748329988E0,1.220339537E-1,9.678369522E0,1.663609982E0
2.750566621E0,1.220339537E-1,9.659825325E0,1.649253011E0
2.752803194E0,1.076770201E-1,9.678967476E0,1.649253011E0
2.755040193E0,6.460621208E-2,9.650852203E0,1.634297848E0
2.757276887E0,7.477571070E-2,9.665208817E0,1.606182218E0
2.759513887E0,4.127619043E-2,9.680164337E0,1.557727575E0
2.761750642E0,1.734796353E-2,9.671191216E0,1.572084427E0
2.763988008E0,-1.076770201E-2,9.671789169E0,1.524227977E0
2.766220796E0,-1.615155302E-2,9.652647018E0,1.509871125E0
2.768448640E0,-3.409772366E-2,9.696315765E0,1.495514154E0
2.770696992E0,-8.733802289E-2,9.677771568E0,1.514058471E0
2.772934053E0,-1.064806059E-1,9.673583984E0,1.490130305E0
2.775173921E0,-1.304088384E-1,9.687940598E0,1.479960799E0
2.777407930E0,-1.591227055E-1,9.702896118E0,1.499103427E0
2.779644502E0,-1.878365725E-1,9.684351921E0,1.488933921E0
2.781881990E0,-2.309073806E-1,9.704092026E0,1.503290772E0
2.784117525E0,-2.733799815E-1,9.714262009E0,1.493121386E0
2.786354463E0,-2.931207716E-1,9.699904442E0,1.507478237E0
2.788591279E0,-3.314059377E-1,9.690931320E0,1.511665702E0
2.790829133E0,-3.499503136E-1,9.753743172E0,1.502094388E0
2.793064912E0,-3.589234054E-1,9.777671814E0,1.511067510E0
2.795298493E0,-3.678964674E-1,9.815957069E0,1.501496196E0
2.797526277E0,-3.864408433E-1,9.873384476E0,1.491924882E0
2.799775789E0,-3.619144261E-1,9.911669731E0,1.511067510E0
2.802011751E0,-3.906283081E-1,9.906884193E0,1.524826288E0
2.804251741E0,-3.906283081E-1,9.902098656E0,1.505683661E0
2.806485139E0,-4.055834413E-1,9.864411354E0,1.500898004E0
2.808722139E0,-4.342973232E-1,9.869794846E0,1.481755376E0
2.810958650E0,-4.683950245E-1,9.836296082E0,1.505085468E0
2.813195466E0,-4.785645306E-1,9.803394318E0,1.505085468E0
2.815432222E0,-5.024927258E-1,9.793823242E0,1.505085468E0
2.817669588E0,-5.210371017E-1,9.808777809E0,1.476371527E0
2.819905427E0,-5.306084156E-1,9.809376717E0,1.452443361E0
2.822142305E0,-5.162515044E-1,9.813564301E0,1.442872047E0
2.824378938E0,-5.210371017E-1,9.823135376E0,1.438086390E0
2.826615938E0,-5.012963414E-1,9.818349838E0,1.414756417E0
2.828852571E0,-5.060819983E-1,9.799206734E0,1.390828133E0
2.831086579E0,-5.210371017E-1,9.775876999E0,1.395015597E0
2.833314363E0,-5.407779217E-1,9.738189697E0,1.361516118E0
2.835563692E0,-5.318048596E-1,9.694520950E0,1.357328653E0
2.837799470E0,-5.611169338E-1,9.637691498E0,1.333400369E0
2.840039339E0,-5.324030519E-1,9.618548393E0,1.342971683E0
2.842272859E0,-5.521438122E-1,9.585049629E0,1.342971683E0
2.844509431E0,-5.425725579E-1,9.570692062E0,1.328614831E0
2.846746309E0,-5.527420044E-1,9.551549911E0,1.319043517E0
2.848983369E0,-5.527420044E-1,9.551549911E0,1.328614831E0
2.851220552E0,-5.527420044E-1,9.513862610E0,1.304686546E0
2.853458040E0,-5.533402562E-1,9.499505997E0,1.295115232E0
2.855693513E0,-5.533402562E-1,9.456435204E0,1.262213945E0
2.857930086E0,-5.629115105E-1,9.433105469E0,1.238285661E0
2.860168306E0,-5.676971674E-1,9.413962364E0,1.200000525E0
2.862409700E0,-5.581258535E-1,9.413962364E0,1.171286702E0
2.864637910E0,-5.485545993E-1,9.385248184E0,1.147956610E0
2.866877168E0,-5.533402562E-1,9.385248184E0,1.128814101E0
2.869112580E0,-5.437689424E-1,9.380462646E0,1.100100160E0
2.871352448E0,-5.150550604E-1,9.370891571E0,1.095314622E0
2.873587556E0,-4.857429862E-1,9.365508080E0,1.038485050E0
2.875823884E0,-4.755735099E-1,9.394221306E0,1.019342422E0
2.878060457E0,-4.707878530E-1,9.394221306E0,9.672985673E-1
2.880297517E0,-4.223332107E-1,9.431908607E0,9.816554785E-1
2.882534395E0,-3.930211067E-1,9.455837250E0,9.391828775E-1
2.884770967E0,-3.732803464E-1,9.464810371E0,9.343972206E-1
2.887008088E0,-3.589234054E-1,9.469595909E0,9.158528447E-1
2.889245820E0,-3.343969584E-1,9.483354568E0,9.014959335E-1
2.891481416E0,-3.343969584E-1,9.474381447E0,8.584251404E-1
2.893717988E0,-3.146561682E-1,9.493523598E0,8.255237937E-1
2.895954500E0,-3.002992272E-1,9.483354568E0,8.111668825E-1
2.898191499E0,-3.002992272E-1,9.464810371E0,7.728816867E-1
2.900427949E0,-2.859423161E-1,9.454640388E0,7.591229677E-1
2.902664949E0,-2.709871531E-1,9.464211464E0,7.208378315E-1
2.904901826E0,-2.380858511E-1,9.454042435E0,7.262216806E-1
2.907139680E0,-2.374876440E-1,9.449854851E0,6.927221417E-1
2.909375215E0,-2.470589429E-1,9.454640388E0,6.783652306E-1
2.911612092E0,-2.374876440E-1,9.425926208E0,6.687939167E-1
2.913848543E0,-2.416750938E-1,9.459425926E0,6.544370055E-1
2.916085359E0,-2.273181528E-1,9.459425926E0,6.352944374E-1
2.918321870E0,-2.279163599E-1,9.440283775E0,6.448656917E-1
2.920557771E0,-2.279163599E-1,9.425926208E0,6.167500615E-1
2.922793000E0,-2.422732860E-1,9.407382011E0,6.119644046E-1
2.925033662E0,-2.428714931E-1,9.378668785E0,6.119644046E-1
2.927269014E0,-2.572284341E-1,9.359525681E0,6.209374666E-1
2.929506319E0,-2.667997181E-1,9.354740143E0,5.970092416E-1
2.931742586E0,-2.913261652E-1,9.326624870E0,6.305087805E-1
2.933980440E0,-3.056831062E-1,9.317052841E0,6.065805554E-1
2.936216096E0,-3.248256743E-1,9.336793900E0,5.826523304E-1
2.938452852E0,-3.439682424E-1,9.327222824E0,5.772684813E-1
2.940689668E0,-3.391826153E-1,9.336793900E0,5.820540786E-1
2.942927461E0,-3.535395563E-1,9.337391853E0,5.724828243E-1
2.945160188E0,-3.296113312E-1,9.312865257E0,5.539384484E-1
2.947388338E0,-3.445664644E-1,9.284749985E0,5.587241054E-1
2.949636140E0,-3.487538993E-1,9.303893089E0,5.491527915E-1
2.951873262E0,-3.535395563E-1,9.279964447E0,5.395814776E-1
2.954112947E0,-3.439682424E-1,9.289535522E0,5.300102234E-1
2.956346895E0,-3.583251834E-1,9.284749985E0,5.485545993E-1
2.958583711E0,-3.439682424E-1,9.284749985E0,5.156532526E-1
2.960821199E0,-3.774677813E-1,9.294919968E0,5.341976285E-1
2.963056795E0,-3.780659735E-1,9.280562401E0,5.533402562E-1
2.965293611E0,-3.822534084E-1,9.290133476E0,5.485545993E-1
2.967530000E0,-3.828516304E-1,9.270991325E0,5.629115105E-1
2.969767366E0,-3.882354796E-1,9.256634712E0,5.772684813E-1
2.972004121E0,-3.738785386E-1,9.270393372E0,6.011967063E-1
2.974240754E0,-3.690928817E-1,9.260822296E0,5.820540786E-1
2.976477754E0,-3.541377485E-1,9.275178909E0,5.820540786E-1
2.978715242E0,-3.302095234E-1,9.284152031E0,5.587241054E-1
2.980948519E0,-3.343969584E-1,9.289535522E0,5.300102234E-1
2.983178132E0,-3.248256743E-1,9.284152031E0,5.443671346E-1
2.985423982E0,-3.200400174E-1,9.293723106E0,5.156532526E-1
2.987661043E0,-3.050848842E-1,9.298508644E0,5.018945336E-1
2.989900056E0,-3.104687333E-1,9.269794464E0,4.971089065E-1
2.992134736E0,-3.056831062E-1,9.279366493E0,4.971089065E-1
2.994371553E0,-3.200400174E-1,9.284749985E0,4.917250574E-1
2.996609102E0,-2.961117923E-1,9.303294182E0,5.210371017E-1
2.998844636E0,-3.200400174E-1,9.308079720E0,5.443671346E-1
3.001081453E0,-3.343969584E-1,9.322437286E0,5.682953596E-1
3.003318086E0,-3.529413342E-1,9.375079155E0,6.107679605E-1
3.005553682E0,-3.774677813E-1,9.385248184E0,6.580262184E-1
3.007779023E0,-3.912265003E-1,9.432506561E0,7.058826685E-1
3.010014070E0,-4.582255483E-1,9.467203140E0,7.525427341E-1
3.012250276E0,-4.725824594E-1,9.528818130E0,8.476574421E-1
3.014490205E0,-5.246263742E-1,9.596415520E0,9.092726111E-1
3.016741609E0,-5.724828243E-1,9.640084267E0,9.469595551E-1
3.018978060E0,-5.910272002E-1,9.702297211E0,9.798609018E-1
3.021215669E0,-6.299105883E-1,9.693324089E0,1.041476011E0
3.023448884E0,-6.532405615E-1,9.717252731E0,1.046261668E0
3.025685518E0,-6.921239495E-1,9.708279610E0,1.055234790E0
3.027922334E0,-7.016952634E-1,9.703494072E0,1.088734269E0
3.030159395E0,-7.501499057E-1,9.694520950E0,1.150349498E0
3.032396943E0,-7.704889178E-1,9.670592308E0,1.197607756E0
3.034632539E0,-7.854440212E-1,9.632308006E0,1.240678549E0
3.036869356E0,-7.956135273E-1,9.608379364E0,1.268794179E0
3.039105867E0,-8.297112584E-1,9.598808289E0,1.321436286E0
3.041342744E0,-8.590233326E-1,9.580264091E0,1.344766378E0
3.043579561E0,-8.979067206E-1,9.542576790E0,1.392024517E0
3.045816377E0,-9.373882413E-1,9.509077072E0,1.439880967E0
3.048051423E0,-9.619147182E-1,9.499505997E0,1.487139225E0
3.050282625E0,-1.001396298E0,9.452247620E0,1.543968797E0
3.052526277E0,-1.016351461E0,9.409176826E0,1.558325768E0
3.054763154E0,-1.035493970E0,9.404989243E0,1.553540111E0
3.057001985E0,-1.021137118E0,9.413962364E0,1.563111424E0
3.059236848E0,-9.535398483E-1,9.456435204E0,1.568495274E0
3.061473604E0,-9.152546525E-1,9.460023880E0,1.601994753E0
3.063710115E0,-8.434699774E-1,9.482755661E0,1.626521230E0
3.065947236E0,-7.854440212E-1,9.524630547E0,1.683948994E0
3.068184785E0,-7.190431952E-1,9.537791252E0,1.732403636E0
3.070420625E0,-6.759724021E-1,9.537193298E0,1.789831281E0
3.072657136E0,-6.622136831E-1,9.522237778E0,1.818545222E0
3.074893770E0,-6.388836503E-1,9.521639824E0,1.852642894E0
3.077128999E0,-6.490531564E-1,9.497711182E0,1.899901152E0
3.079356355E0,-6.400800347E-1,9.468997002E0,1.957328916E0
3.081603975E0,-7.220342159E-1,9.503094673E0,2.070987940E0
3.083840791E0,-7.890332937E-1,9.598808289E0,2.261217356E0
3.086081575E0,-7.950153351E-1,9.645467758E0,2.480160713E0
3.088314485E0,-7.914260626E-1,9.597611427E0,2.528017044E0
3.090548371E0,-7.782655358E-1,9.468399048E0,2.475973129E0
3.092776094E0,-7.842476368E-1,9.372686386E0,2.442473650E0
3.095024873E0,-7.369893789E-1,9.296115875E0,2.404786825E0
3.097261384E0,-6.891329288E-1,9.276374817E0,2.357528448E0
3.099500826E0,-6.460621357E-1,9.261420250E0,2.310270309E0
3.101734773E0,-5.784648657E-1,9.265008926E0,2.297109842E0
3.103972627E0,-5.736792088E-1,9.288937569E0,2.306680918E0
3.106208467E0,-5.778666735E-1,9.341579437E0,2.330011129E0
3.108445100E0,-5.820540786E-1,9.394221306E0,2.334796667E0
3.110681612E0,-5.814558864E-1,9.427721024E0,2.325225353E0
3.112918611E0,-6.095715761E-1,9.452247620E0,2.315055847E0
3.115152253E0,-6.388836503E-1,9.466604233E0,2.377269268E0
3.117380037E0,-6.484549642E-1,9.471389771E0,2.405385017E0
3.119628877E0,-6.490531564E-1,9.457033157E0,2.438884497E0
3.121866609E0,-6.059823632E-1,9.442078590E0,2.449054003E0
3.124104952E0,-5.874379873E-1,9.398408890E0,2.458625317E0
3.126335847E0,-5.108676553E-1,9.378069878E0,2.440080881E0
3.128563387E0,-4.205385745E-1,9.352945328E0,2.422134638E0
3.130812532E0,-3.152543902E-1,9.332606316E0,2.413759947E0
3.133049348E0,-2.285145670E-1,9.340981483E0,2.395215511E0
3.135289095E0,-1.322034448E-1,9.377471924E0,2.396411896E0
3.137522920E0,-2.572284266E-2,9.433703423E0,2.382653236E0
3.139760408E0,4.606183618E-2,9.455837250E0,2.421536446E0
3.141996004E0,8.315058798E-2,9.431310654E0,2.474178553E0
3.144232881E0,1.172483116E-1,9.421739578E0,2.431705952E0
3.146469636E0,1.998006850E-1,9.487542152E0,2.370090723E0
3.148707307E0,2.781656384E-1,9.534799576E0,2.289931297E0
3.150943330E0,3.798605800E-1,9.571888924E0,2.176272154E0
3.153179841E0,4.582255483E-1,9.604789734E0,2.057827473E0
3.155416536E0,5.312066078E-1,9.637691498E0,1.948953986E0
3.157654451E0,6.041877270E-1,9.656235695E0,1.863410592E0
3.159890108E0,6.568298340E-1,9.631709099E0,1.788036704E0
3.162126924E0,6.765705943E-1,9.622138023E0,1.744965911E0
3.164363191E0,6.813562512E-1,9.626923561E0,1.716252089E0
3.166600313E0,6.771687865E-1,9.641280174E0,1.664208174E0
3.168837129E0,6.634100676E-1,9.661021233E0,1.645065546E0
3.171073945E0,6.783652306E-1,9.708877563E0,1.621137381E0
3.173310762E0,6.849454641E-1,9.761520386E0,1.563709617E0
3.175548250E0,7.292127013E-1,9.818349838E0,1.516451359E0
3.177783845E0,7.489534616E-1,9.861420631E0,1.463809252E0
3.180020723E0,7.495517135E-1,9.885348320E0,1.426122308E0
3.182257234E0,7.549355626E-1,9.885947227E0,1.359123230E0
3.184494111E0,7.561319470E-1,9.895518303E0,1.287338614E0
3.186730928E0,7.615157962E-1,9.933803558E0,1.225723386E0
3.188967744E0,7.567301393E-1,9.910472870E0,1.187438250E0
3.191204805E0,7.477570772E-1,9.929615974E0,1.158724308E0
3.193442048E0,7.483552694E-1,9.958928108E0,1.125224829E0
3.195677644E0,7.250252366E-1,9.992427826E0,1.101296663E0
3.197912569E0,7.010970116E-1,9.993025780E0,1.119840980E0
3.200143465E0,6.771687865E-1,9.988240242E0,1.134197950E0
3.202387971E0,6.478567123E-1,9.979267120E0,1.147956610E0
3.204625032E0,6.287141442E-1,9.979267120E0,1.181456208E0
3.206863679E0,6.041877270E-1,9.975079536E0,1.214357495E0
3.209098664E0,6.179464459E-1,9.950552940E0,1.266999602E0
3.211336030E0,6.269195080E-1,9.940383911E0,1.343569875E0
3.213571443E0,6.263213158E-1,9.934999466E0,1.405783296E0
3.215805696E0,6.209374666E-1,9.944570541E0,1.457827210E0
3.218031709E0,6.400800347E-1,9.953543663E0,1.505683661E0
3.220274385E0,6.490531564E-1,9.957731247E0,1.587039590E0
3.222518587E0,7.010970116E-1,9.957133293E0,1.649253011E0
3.224756257E0,7.202396393E-1,9.979865074E0,1.730608940E0
3.226981844E0,7.292127013E-1,9.998409271E0,1.849651933E0
3.229215364E0,7.429714203E-1,1.003609657E1,1.945364833E0
3.231451081E0,7.328019142E-1,1.004566765E1,2.026122570E0
3.233690523E0,7.369893789E-1,1.004506969E1,2.102692842E0
3.235927949E0,7.082754970E-1,1.006421185E1,2.193022013E0
3.238164704E0,6.783652306E-1,1.006421185E1,2.297708035E0
3.240402742E0,6.442674994E-1,1.007378292E1,2.378465652E0
3.242637544E0,6.107679605E-1,1.008335495E1,2.430509567E0
3.244875032E0,5.527420044E-1,1.009352398E1,2.501097918E0
3.247112093E0,5.234299302E-1,1.010788059E1,2.568096876E0
3.249348176E0,4.947160780E-1,1.014138031E1,2.639283419E0
3.251584932E0,4.749752879E-1,1.016052341E1,2.734398127E0
3.253821443E0,3.696911037E-1,1.016231823E1,2.752344131E0
3.256061250E0,2.889333367E-1,1.021077251E1,2.784647465E0
3.258309725E0,2.362912297E-1,1.024068260E1,2.798406124E0
3.260546236E0,1.836491376E-1,1.026520920E1,2.802593470E0
3.262783174E0,1.172483116E-1,1.030887794E1,2.825923443E0
3.265017976E0,4.606183618E-2,1.035793114E1,2.839682341E0
3.267253572E0,-4.546362907E-2,1.035434151E1,2.871985435E0
3.269490266E0,-1.651047617E-1,1.036092186E1,2.885145903E0
3.271726961E0,-2.751746178E-1,1.036750221E1,2.903092146E0
3.273963838E0,-4.049852192E-1,1.035972595E1,2.925823927E0
3.276200715E0,-5.491527915E-1,1.035194874E1,2.929413080E0
3.278437410E0,-6.496513486E-1,1.032502937E1,2.909672260E0
3.280671296E0,-7.842476368E-1,1.030349445E1,2.884547710E0
3.282896821E0,-8.799605370E-1,1.027119160E1,2.845664263E0
3.285135347E0,-9.858429432E-1,1.022991467E1,2.810968399E0
3.287383943E0,-1.058225870E0,1.016471100E1,2.763111830E0
3.289623811E0,-1.121037364E0,1.012283611E1,2.733799934E0
3.291861849E0,-1.168893814E0,1.009472084E1,2.676372051E0
3.294094453E0,-1.197607756E0,1.002891827E1,2.623729944E0
3.296331087E0,-1.236491084E0,9.976874352E0,2.566302299E0
3.298568086E0,-1.236491084E0,9.939187050E0,2.513660192E0
3.300805879E0,-1.241276741E0,9.900901794E0,2.456830740E0
3.303041536E0,-1.198205948E0,9.867402077E0,2.390429735E0
3.305278230E0,-1.179063320E0,9.833903313E0,2.333600283E0
3.307514558E0,-1.146162033E0,9.775876999E0,2.319243431E0
3.309750825E0,-1.088734269E0,9.760921478E0,2.243869543E0
3.311984956E0,-1.012163997E0,9.731609344E0,2.220539331E0
3.314224824E0,-9.116654396E-1,9.696913719E0,2.140379906E0
3.316462129E0,-8.297112584E-1,9.667003632E0,2.088934183E0
3.318700472E0,-7.148557901E-1,9.661021233E0,2.037488461E0
3.320935335E0,-5.760720372E-1,9.625727654E0,1.981855392E0
3.323172090E0,-4.899304509E-1,9.562317848E0,1.910668850E0
3.325408601E0,-3.984049559E-1,9.570692062E0,1.868794441E0
3.327645479E0,-2.883351147E-1,9.526425362E0,1.812563181E0
3.329882234E0,-2.027917206E-1,9.472586632E0,1.751546144E0
3.332118867E0,-1.357926875E-1,9.448060036E0,1.718644857E0
3.334356233E0,-5.443671346E-2,9.399007797E0,1.676770449E0
3.336593721E0,7.178467698E-3,9.364909172E0,1.667797327E0
3.338829317E0,9.332008660E-2,9.334999084E0,1.630708575E0
3.341065889E0,1.651047617E-1,9.314660072E0,1.602592945E0
3.343302644E0,2.656033039E-1,9.279964447E0,1.555932879E0
3.345539522E0,3.619144261E-1,9.250054359E0,1.494915962E0
3.347773713E0,4.576273263E-1,9.248857498E0,1.443470240E0
3.350002290E0,5.545366406E-1,9.262018204E0,1.387238979E0
3.352249727E0,6.502495408E-1,9.265607834E0,1.359123230E0
3.354487459E0,6.885347366E-1,9.260223389E0,1.378864050E0
3.356725740E0,7.316055298E-1,9.259625435E0,1.393221021E0
3.358959932E0,7.411768436E-1,9.259027481E0,1.412363529E0
3.361196443E0,7.022934556E-1,9.254839897E0,1.445863128E0
3.363434297E0,6.442674994E-1,9.236295700E0,1.483550072E0
3.365670137E0,5.527420044E-1,9.218349457E0,1.491924882E0
3.367906953E0,4.660021961E-1,9.200403214E0,1.524826288E0
3.370143587E0,3.505485058E-1,9.187840462E0,1.576271892E0
3.372381563E0,2.207378894E-1,9.199206352E0,1.622333765E0
3.374617097E0,1.106680483E-1,9.205188751E0,1.659422517E0
3.376850740E0,-4.187439568E-3,9.240483284E0,1.696511269E0
3.379078218E0,-1.190429255E-1,9.260822296E0,1.733600020E0
3.381327119E0,-2.775674164E-1,9.282357216E0,1.774876237E0
3.383564180E0,-4.067798555E-1,9.298508644E0,1.792822361E0
3.385803743E0,-5.359922647E-1,9.305088997E0,1.839482427E0
3.388037873E0,-6.705885530E-1,9.278767586E0,1.828714728E0
3.390275300E0,-7.956135273E-1,9.247062683E0,1.851446509E0
3.392510957E0,-9.254241586E-1,9.239286423E0,1.869392633E0
3.394747774E0,-1.021735311E0,9.226125717E0,1.896910191E0
3.396984285E0,-1.094118118E0,9.208179474E0,1.934597135E0
3.399221162E0,-1.175474167E0,9.209376335E0,1.938784599E0
3.401457918E0,-1.199402332E0,9.218947411E0,1.947757602E0
3.403694551E0,-1.208973646E0,9.223732948E0,1.947757602E0
3.405931855E0,-1.232901812E0,9.219545364E0,1.966900229E0
3.408169160E0,-1.223928809E0,9.200403214E0,1.957328916E0
3.410405000E0,-1.204187989E0,9.204590797E0,1.928615093E0
3.412641572E0,-1.141974568E0,9.203991890E0,1.896311998E0
3.414878328E0,-1.122233868E0,9.199206352E0,1.858026743E0
3.417114961E0,-1.074377418E0,9.193822861E0,1.815554142E0
3.419352083E0,-1.007378340E0,9.183054924E0,1.801795483E0
3.421588777E0,-9.349954724E-1,9.153742790E0,1.716850281E0
3.423825715E0,-8.721838593E-1,9.153144836E0,1.669592023E0
3.426063142E0,-7.525427341E-1,9.132207870E0,1.627717614E0
3.428298738E0,-6.520441771E-1,9.116654396E0,1.576271892E0
3.430533113E0,-5.461617708E-1,9.115457535E0,1.553540111E0
3.432762361E0,-4.307080805E-1,9.132805824E0,1.535593987E0
3.435009981E0,-3.110669553E-1,9.126225471E0,1.532004714E0
3.437245759E0,-2.153540403E-1,9.134002686E0,1.561316729E0
3.439484895E0,-1.585244983E-1,9.118449211E0,1.628315806E0
3.441719453E0,-9.750752151E-2,9.074779510E0,1.676770449E0
3.443956941E0,-5.084748194E-2,9.035298347E0,1.734796405E0
3.446192598E0,-4.247260094E-2,8.982057571E0,1.810768485E0
3.448429353E0,-1.076770201E-2,8.914461136E0,1.892722726E0
3.450665987E0,-1.256231871E-2,8.818149567E0,1.968694806E0
3.452903108E0,0.000000000E0,8.736195564E0,2.064407825E0
3.455139863E0,-7.178467698E-3,8.650053978E0,2.174477577E0
3.457376436E0,-1.854437590E-2,8.577671051E0,2.283949137E0
3.459615022E0,-5.982056726E-3,8.524430275E0,2.394019127E0
3.461857027E0,-5.084748194E-2,8.452646255E0,2.513062000E0
3.464086397E0,-8.554340899E-2,8.391031265E0,2.560320139E0
3.466323457E0,-8.673982322E-2,8.352147102E0,2.636890650E0
3.468558443E0,-1.070788130E-1,8.276175499E0,2.655434847E0
3.470796907E0,-1.088734269E-1,8.194819450E0,2.684148788E0
3.473033662E0,-5.682953820E-2,8.126624107E0,2.684746981E0
3.475270479E0,4.187439755E-2,8.029714584E0,2.714657307E0
3.477507600E0,9.391828626E-2,7.961519241E0,2.715255499E0
3.479745027E0,1.842473447E-1,7.931608677E0,2.763710260E0
3.481980379E0,2.835494876E-1,7.891529083E0,2.812762976E0
3.484217195E0,4.073780477E-1,7.869993687E0,2.880360365E0
3.486453767E0,5.222335458E-1,7.877770424E0,2.943171740E0
3.488690950E0,6.125625968E-1,7.923832417E0,3.058625460E0
3.490927705E0,7.232306600E-1,7.993224144E0,3.135794163E0
3.493164277E0,8.249256015E-1,8.077570915E0,3.203391314E0
3.495401338E0,8.877372146E-1,8.181658745E0,3.256033421E0
3.497638826E0,9.565308690E-1,8.271389961E0,3.270988464E0
3.499874422E0,9.619147182E-1,8.347361565E0,3.280559778E0
3.502111055E0,9.870393276E-1,8.404789925E0,3.266202927E0
3.504348115E0,9.451649189E-1,8.481958389E0,3.251846075E0
3.506585908E0,8.979067206E-1,8.511270523E0,3.217748165E0
3.508818513E0,8.512466550E-1,8.569893837E0,3.174079180E0
3.511043122E0,7.274180651E-1,8.600402832E0,3.135195971E0
3.513283235E0,6.472585201E-1,8.673981667E0,3.090928555E0
3.515533174E0,5.766702294E-1,8.727820396E0,3.047259569E0
3.517771517E0,5.066801906E-1,8.796015739E0,2.956332445E0
3.520008028E0,4.935196638E-1,8.854042053E0,2.851048231E0
3.522241487E0,4.666004181E-1,8.927022934E0,2.755335331E0
3.524478425E0,4.492524564E-1,9.008976936E0,2.673979282E0
3.526715303E0,4.564309120E-1,9.104690552E0,2.540579557E0
3.528952058E0,4.636093974E-1,9.196215630E0,2.411366940E0
3.531188997E0,4.564309120E-1,9.278169632E0,2.273181438E0
3.533426729E0,4.342973232E-1,9.336793900E0,2.167897224E0
3.535662324E0,3.924229145E-1,9.371489525E0,2.057827473E0
3.537899202E0,3.655036688E-1,9.448657990E0,1.947757602E0
3.540135652E0,3.002992272E-1,9.498309135E0,1.846660852E0
3.542372529E0,2.440679073E-1,9.533005714E0,1.765304923E0
3.544609346E0,1.728814393E-1,9.558130264E0,1.688136339E0
3.546846040E0,1.208375469E-1,9.564111710E0,1.592423439E0
3.549082734E0,4.067798331E-2,9.589835167E0,1.496112347E0
3.551320466E0,-3.050848842E-2,9.571888924E0,1.414158225E0
3.553556123E0,-1.166501045E-1,9.564111710E0,1.342373490E0
3.555793245E0,-1.782652885E-1,9.565308571E0,1.265205026E0
3.558029512E0,-2.536391914E-1,9.581459999E0,1.178465128E0
3.560266572E0,-3.158525825E-1,9.573084831E0,1.087537885E0
3.562503084E0,-3.972085714E-1,9.541379929E0,1.015154958E0
3.564739900E0,-4.540380836E-1,9.523433685E0,9.385846853E-1
3.566976716E0,-5.204389095E-1,9.515657425E0,8.380861282E-1
3.569214326E0,-5.976074338E-1,9.440283775E0,7.465606928E-1
3.571450227E0,-6.789634228E-1,9.413364410E0,6.693921089E-1
3.573687288E0,-7.788637877E-1,9.381659508E0,5.688936114E-1
3.575923799E0,-8.751748800E-1,9.331410408E0,5.012963414E-1
3.578161348E0,-9.804590940E-1,9.304491043E0,4.378865361E-1
3.580397127E0,-1.042074203E0,9.281759262E0,3.421736360E-1
3.582633943E0,-1.151545882E0,9.269794464E0,2.506481707E-1
3.584870576E0,-1.237687469E0,9.266205788E0,1.782652885E-1
3.587108308E0,-1.342373490E0,9.244669914E0,8.673982322E-2
3.589341035E0,-1.447059512E0,9.251250267E0,4.785645287E-3
3.591569368E0,-1.546959877E0,9.248259544E0,-7.716853172E-2
3.593817537E0,-1.623530149E0,9.226125717E0,-1.639083475E-1
3.596054170E0,-1.713859200E0,9.223134995E0,-2.644068897E-1
3.598293855E0,-1.780260086E0,9.219545364E0,-3.415754437E-1
3.600524751E0,-1.871187329E0,9.197412491E0,-3.996013701E-1
3.602752961E0,-1.942373753E0,9.203991890E0,-4.815555513E-1
3.605002412E0,-2.003988981E0,9.200403214E0,-5.676971674E-1
3.607238008E0,-2.070389748E0,9.215956688E0,-6.400800347E-1
3.609477754E0,-2.132004976E0,9.207581520E0,-7.166503668E-1
3.611711092E0,-2.212762833E0,9.223732948E0,-7.794619799E-1
3.613948152E0,-2.259422779E0,9.244071960E0,-8.560323119E-1
3.616184785E0,-2.306680918E0,9.245268822E0,-9.469595551E-1
3.618421846E0,-2.339582443E0,9.255437851E0,-1.028913736E0
3.620658662E0,-2.391626120E0,9.261420250E0,-1.105484009E0
3.622896211E0,-2.415554523E0,9.257232666E0,-1.148554921E0
3.625131746E0,-2.453241348E0,9.248857498E0,-1.210768223E0
3.627368623E0,-2.462812662E0,9.239286423E0,-1.263410330E0
3.629605135E0,-2.490928411E0,9.244669914E0,-1.330409408E0
3.631842012E0,-2.510071039E0,9.206983566E0,-1.349551916E0
3.634078828E0,-2.533401012E0,9.221938133E0,-1.406979680E0
3.636315584E0,-2.533401012E0,9.203393936E0,-1.445264935E0
3.638552522E0,-2.542972326E0,9.198608398E0,-1.478764415E0
3.640790193E0,-2.566900492E0,9.175278664E0,-1.545763373E0
3.643025545E0,-2.571686029E0,9.166305542E0,-1.569691658E0
3.645262422E0,-2.576471806E0,9.142376900E0,-1.597807288E0
3.647499177E0,-2.571087837E0,9.142376900E0,-1.626521230E0
3.649737092E0,-2.542374134E0,9.123234749E0,-1.702493310E0
3.651972932E0,-2.537588358E0,9.104091644E0,-1.740778446E0
3.654209688E0,-2.546561480E0,9.080761909E0,-1.802393675E0
3.656446321E0,-2.541775942E0,9.056833267E0,-1.840678811E0
3.658684236E0,-2.551945448E0,9.000003815E0,-1.902892232E0
3.660917146E0,-2.571087837E0,8.952746391E0,-1.969292998E0
3.663146638E0,-2.566900492E0,8.914461136E0,-2.017149448E0
3.665392671E0,-2.599801779E0,8.891729355E0,-2.088934183E0
3.667629915E0,-2.642872572E0,8.868997574E0,-2.165504456E0
3.669869355E0,-2.757129908E0,8.870791435E0,-2.219342947E0
3.672103547E0,-3.009572744E0,8.922835350E0,-2.302493572E0
3.674340608E0,-3.378665686E0,8.923434258E0,-2.310868502E0
3.676578035E0,-3.644867182E0,8.769695282E0,-2.270190477E0
3.678813631E0,-3.806382656E0,8.537590981E0,-2.247458696E0
3.681050203E0,-3.875774384E0,8.371290207E0,-2.271386862E0
3.683286775E0,-3.994817495E0,8.344968796E0,-2.405983210E0
3.685523897E0,-3.997210264E0,8.422736168E0,-2.558525562E0
3.687760774E0,-3.950550079E0,8.542376518E0,-2.806182861E0
3.689997529E0,-3.850649834E0,8.694919586E0,-3.034697294E0
3.692234346E0,-3.687937975E0,8.875576973E0,-3.276970625E0
3.694471895E0,-3.530609846E0,9.037093163E0,-3.513859987E0
3.696707612E0,-3.441477060E0,9.141778946E0,-3.704089403E0
3.698944063E0,-3.435495138E0,9.137591362E0,-3.856631994E0
3.701180818E0,-3.531208038E0,9.068199158E0,-3.985844374E0
3.703417634E0,-3.656233072E0,8.984451294E0,-4.091726780E0
3.705654573E0,-3.819543123E0,8.882157326E0,-4.174279213E0
3.707891267E0,-3.984049797E0,8.741579056E0,-4.237689018E0
3.710128206E0,-4.082155228E0,8.594420433E0,-4.252644062E0
3.712365938E0,-4.037888050E0,8.406583786E0,-4.113860130E0
3.714601472E0,-4.056432724E0,8.402397156E0,-4.180261135E0
3.716838045E0,-4.036691666E0,8.416753769E0,-4.242474556E0
3.719074678E0,-3.960121393E0,8.401798248E0,-4.284348965E0
3.721312898E0,-3.858426571E0,8.447860718E0,-4.307679176E0
3.723548311E0,-3.757329702E0,8.504091263E0,-4.296911240E0
3.725785127E0,-3.650849104E0,8.573483467E0,-4.248456478E0
3.728021638E0,-3.536591768E0,8.590831757E0,-4.166502476E0
3.730259736E0,-3.427120209E0,8.598010063E0,-4.084548473E0
3.732495332E0,-3.293720484E0,8.576474190E0,-3.987638950E0
3.734732210E0,-3.174677372E0,8.578866959E0,-3.872185230E0
3.736968660E0,-3.056232691E0,8.571688652E0,-3.728017569E0
3.739205537E0,-2.952144861E0,8.583653450E0,-3.589233875E0
3.741442293E0,-2.895315409E0,8.620741844E0,-3.431307554E0
3.743678865E0,-2.863012314E0,8.638090134E0,-3.221337557E0
3.745915986E0,-2.830111027E0,8.684749603E0,-3.034697294E0
3.748153535E0,-2.826521635E0,8.712266922E0,-2.863012314E0
3.750389375E0,-2.837289333E0,8.730812073E0,-2.667997360E0
3.752625947E0,-2.857628345E0,8.730213165E0,-2.496312141E0
3.754862520E0,-2.863610506E0,8.757730484E0,-2.295913219E0
3.757099580E0,-2.874378204E0,8.771489143E0,-2.110469580E0
3.759336397E0,-2.899502754E0,8.785846710E0,-1.967498422E0
3.761572969E0,-2.915654421E0,8.770293236E0,-1.771885157E0
3.763810029E0,-2.949752092E0,8.803792953E0,-1.624726534E0
3.766047578E0,-2.950350285E0,8.841479301E0,-1.491326690E0
3.768283418E0,-2.965305567E0,8.864809990E0,-1.381855130E0
3.770519990E0,-3.013161898E0,8.894122124E0,-1.315454245E0
3.772756502E0,-3.056830883E0,8.903693199E0,-1.244267821E0
3.774993318E0,-3.100499868E0,8.904291153E0,-1.206580877E0
3.777230256E0,-3.153141975E0,8.890532494E0,-1.183250785E0
3.779467256E0,-3.205784082E0,8.906085968E0,-1.155135155E0
3.781704072E0,-3.220739365E0,8.901300430E0,-1.126421213E0
3.783941377E0,-3.268595695E0,8.897112846E0,-1.136590719E0
3.786177156E0,-3.302095175E0,8.897710800E0,-1.141974568E0
3.788413972E0,-3.315854073E0,8.931210518E0,-1.156331539E0
3.790650667E0,-3.315255880E0,8.969495773E0,-1.175474167E0
3.792888582E0,-3.342773199E0,9.022735596E0,-1.213759303E0
3.795123933E0,-3.336791277E0,9.084949493E0,-1.261615753E0
3.797360811E0,-3.331407309E0,9.123832703E0,-1.295115232E0
3.799597627E0,-3.373879910E0,9.134002686E0,-1.347757339E0
3.801835664E0,-3.415754318E0,9.159127235E0,-1.453041553E0
3.804071016E0,-3.453441381E0,9.150752068E0,-1.524826288E0
3.806307832E0,-3.476771355E0,9.132207870E0,-1.610967875E0
3.808544222E0,-3.514458179E0,9.142974854E0,-1.706680775E0
3.810780916E0,-3.547359467E0,9.119645119E0,-1.797608018E0
3.813017793E0,-3.546761274E0,9.120243073E0,-1.878963947E0
3.815254793E0,-3.541975737E0,9.101100922E0,-1.959721804E0
3.817491731E0,-3.502494097E0,9.110671997E0,-2.040479422E0
3.819729219E0,-3.468396425E0,9.115457535E0,-2.130808592E0
3.821964754E0,-3.415156126E0,9.138788223E0,-2.173281193E0
3.824201631E0,-3.366103172E0,9.181260109E0,-2.244467735E0
3.826438203E0,-3.288934708E0,9.185447693E0,-2.305484533E0
3.828672334E0,-3.225524902E0,9.203991890E0,-2.376671076E0
3.830900056E0,-3.210569859E0,9.199206352E0,-2.438286304E0
3.833148408E0,-3.143570662E0,9.189037323E0,-2.509472847E0
3.835385713E0,-3.123830080E0,9.193822861E0,-2.561516523E0
3.837626192E0,-3.137588739E0,9.198608398E0,-2.609373093E0
3.839858919E0,-3.181257725E0,9.160921097E0,-2.614757061E0
3.842095674E0,-3.209373474E0,9.171689034E0,-2.653042078E0
3.844332185E0,-3.257229805E0,9.162715912E0,-2.681756020E0
3.846568880E0,-3.295515060E0,9.187242508E0,-2.691925526E0
3.848805086E0,-3.299702406E0,9.215956688E0,-2.696711063E0
3.851042390E0,-3.323032379E0,9.250054359E0,-2.682952404E0
3.853279512E0,-3.370290756E0,9.298508644E0,-2.669193745E0
3.855517244E0,-3.417548895E0,9.356534958E0,-2.660220623E0
3.857752901E0,-3.469592810E0,9.400203705E0,-2.641676188E0
3.859989473E0,-3.521636724E0,9.458230019E0,-2.647060156E0
3.862226289E0,-3.559323788E0,9.501898766E0,-2.627917528E0
3.864464082E0,-3.650250912E0,9.531808853E0,-2.643470764E0
3.866699922E0,-3.721437454E0,9.566504478E0,-2.629712105E0
3.868936494E0,-3.836292982E0,9.592227936E0,-2.635694027E0
3.871173311E0,-3.969692707E0,9.651450157E0,-2.612962246E0
3.873411043E0,-4.098307133E0,9.681958199E0,-2.590230465E0
3.875645600E0,-4.246063709E0,9.760921478E0,-2.601596355E0
3.877879060E0,-4.341178417E0,9.829116821E0,-2.559721947E0
3.880119783E0,-4.426722050E0,9.911071777E0,-2.498705149E0
3.882356843E0,-4.540380955E0,1.002293587E1,-2.442473650E0
3.884594515E0,-4.649852753E0,1.010548782E1,-2.357528448E0
3.886830354E0,-4.760520458E0,1.015454102E1,-2.263610125E0
3.889067659E0,-4.846662045E0,1.020299530E1,-2.164308071E0
3.891305208E0,-4.862215519E0,1.019282627E1,-2.016551256E0
3.893540742E0,-4.783252239E0,1.010967541E1,-1.853839397E0
3.895777193E0,-4.803591251E0,1.014736271E1,-1.677368641E0
3.898013582E0,-4.871787071E0,1.015214825E1,-1.496710539E0
3.900250947E0,-4.978267670E0,1.017188931E1,-1.292722464E0
3.902487764E0,-5.065605640E0,1.018684387E1,-1.150349498E0
3.904724397E0,-5.085346222E0,1.022453117E1,-9.936196208E-1
3.906961457E0,-5.085944653E0,1.025264645E1,-8.506484628E-1
3.909199190E0,-5.086542606E0,1.028076267E1,-7.310073376E-1
3.911434785E0,-5.063810825E0,1.028913784E1,-6.023930907E-1
3.913671602E0,-5.064409256E0,1.030768204E1,-4.689932466E-1
3.915908785E0,-5.834897995E0,1.044526863E1,2.721835673E-1
3.918144685E0,-7.617550850E0,1.056730270E1,2.353939295E0
3.920379671E0,-9.291928291E0,1.058225822E1,4.479363918E0
3.922608919E0,-9.825528145E0,1.065703392E1,5.456831932E0
3.924843782E0,-9.289535522E0,1.079402256E1,5.161318302E0
3.927078645E0,-8.166105270E0,1.100219822E1,4.060021877E0
3.929313508E0,-6.870990276E0,1.128634644E1,2.598007202E0
3.931554292E0,-5.663811207E0,1.152383423E1,1.183250785E0
3.933803560E0,-4.670191765E0,1.167697430E1,5.204389244E-2
3.936040865E0,-3.934996843E0,1.166501045E1,-8.518448472E-1
3.938278536E0,-3.121437073E0,1.116431236E1,-1.677966833E0
3.940512117E0,-2.992224693E0,1.093938732E1,-2.048256159E0
3.942750032E0,-3.105285645E0,1.072163963E1,-2.130210400E0
3.944990877E0,-3.406781197E0,1.051466084E1,-1.903490424E0
3.947222383E0,-3.704089403E0,1.037886810E1,-1.534397483E0
3.949459199E0,-3.885345697E0,1.026042366E1,-1.206580877E0
3.951694673E0,-3.901497364E0,1.023589706E1,-1.049252748E0
3.953932588E0,-3.786043644E0,1.024367332E1,-1.110269666E0
3.956169465E0,-3.591626883E0,1.030409241E1,-1.318445325E0
3.958406404E0,-3.434896946E0,1.040339470E1,-1.564906001E0
3.960643098E0,-3.336193085E0,1.046979523E1,-1.822134495E0
3.962880769E0,-3.319443226E0,1.052841949E1,-2.017149448E0
3.965116121E0,-3.360719442E0,1.058225822E1,-2.160718918E0
3.967353242E0,-3.489931822E0,1.057926750E1,-2.181057930E0
3.969589510E0,-3.687339783E0,1.054397297E1,-2.134995937E0
3.971826631E0,-3.913461447E0,1.053739262E1,-2.056032896E0
3.974063142E0,-4.106083870E0,1.049671459E1,-1.948355794E0
3.976300020E0,-4.269991875E0,1.046082211E1,-1.883151412E0
3.978537080E0,-4.433301926E0,1.048654556E1,-1.798804402E0
3.980774019E0,-4.620540619E0,1.049850941E1,-1.762313843E0
3.983007722E0,-4.672584534E0,1.054696369E1,-1.710269928E0
3.985246797E0,-4.669593334E0,1.052243805E1,-1.543370605E0
3.987483553E0,-4.714458942E0,1.054576778E1,-1.286142230E0
3.989721040E0,-4.783850670E0,1.057866859E1,-9.152546525E-1
3.991957246E0,-4.848456860E0,1.063011456E1,-5.198407173E-1
3.994193757E0,-4.889732838E0,1.062891865E1,-1.579262912E-1
3.996430879E0,-4.930410862E0,1.065224838E1,1.423729509E-1
3.998668367E0,-4.989633560E0,1.068514919E1,4.133601189E-1
4.000903963E0,-4.976472855E0,1.071266651E1,6.137589812E-1
4.003140596E0,-4.943571568E0,1.075454140E1,7.854440212E-1
4.005374787E0,-4.833501816E0,1.082393360E1,9.104689956E-1
4.007601106E0,-4.698905468E0,1.092144108E1,1.035493970E0
4.009838349E0,-4.549952030E0,1.099501991E1,1.136590719E0
4.012079865E0,-4.391427994E0,1.109252739E1,1.271785259E0
4.014316133E0,-4.219742775E0,1.113679504E1,1.473380566E0
4.016565584E0,-4.097708702E0,1.114816093E1,1.774876237E0
4.018799349E0,-4.009772778E0,1.110209846E1,2.114656925E0
4.021037752E0,-4.023531437E0,1.100040436E1,2.438884497E0
4.023271333E0,-4.046861172E0,1.086042404E1,2.691327333E0
4.025508272E0,-4.031308174E0,1.071565819E1,2.892324448E0
4.027745088E0,-4.005585194E0,1.059003448E1,3.073580742E0
4.029981843E0,-3.927818298E0,1.042074299E1,3.208176851E0
4.032218721E0,-3.806382656E0,1.025623608E1,3.329014540E0
4.034456209E0,-3.694518089E0,1.008156013E1,3.387638569E0
4.036691804E0,-3.573082447E0,9.879366875E0,3.393620729E0
4.038928682E0,-3.475574970E0,9.700503349E0,3.466601849E0
4.041165193E0,-3.367897987E0,9.516854286E0,3.491726398E0
4.043402070E0,-3.250649452E0,9.381061554E0,3.540779352E0
4.045635896E0,-3.133401155E0,9.230911255E0,3.565903902E0
4.047860749E0,-3.029313564E0,9.152546883E0,3.580859184E0
4.050100862E0,-2.934797049E0,9.060422897E0,3.605983734E0
4.052350374E0,-2.850450039E0,8.972486496E0,3.673580885E0
4.054589143E0,-2.789433002E0,8.889934540E0,3.726821184E0
4.056825716E0,-2.758326292E0,8.784051895E0,3.798605919E0
4.059059236E0,-2.732005358E0,8.682954788E0,3.894318819E0
4.061296052E0,-2.720041037E0,8.567501068E0,3.990031719E0
4.063532930E0,-2.678765059E0,8.456234932E0,4.086342812E0
4.065769685E0,-2.661417007E0,8.369495392E0,4.115056515E0
4.068006623E0,-2.586043119E0,8.306085587E0,4.182653904E0
4.070244356E0,-2.485544443E0,8.313861847E0,4.202394962E0
4.072479890E0,-2.374876499E0,8.355138779E0,4.237090588E0
4.074717073E0,-2.278565407E0,8.405985832E0,4.256831646E0
4.076955415E0,-2.187039852E0,8.452646255E0,4.233501434E0
4.079190889E0,-2.118844509E0,8.495118141E0,4.196412563E0
4.081426912E0,-2.050648928E0,8.513663292E0,4.125226021E0
4.083662691E0,-1.982453585E0,8.546564102E0,3.992424488E0
4.085900178E0,-1.880758643E0,8.569295883E0,3.893122435E0
4.088135224E0,-1.802991867E0,8.592626572E0,3.826721668E0
4.090362398E0,-1.667797327E0,8.600402832E0,3.737588882E0
4.092610872E0,-1.537986755E0,8.632107735E0,3.667000771E0
4.094845918E0,-1.403390527E0,8.635098457E0,3.644867182E0
4.097082124E0,-1.258624673E0,8.709276199E0,3.641277790E0
4.099320405E0,-1.085145116E0,8.797212601E0,3.695116282E0
4.101557283E0,-9.361918569E-1,8.866603851E0,3.753142357E0
4.103795625E0,-7.920243144E-1,8.964112282E0,3.878765583E0
4.106032258E0,-6.675975323E-1,9.023932457E0,3.994219303E0
4.108267854E0,-5.623133183E-1,9.088538170E0,4.128217220E0
4.110504609E0,-4.911268353E-1,9.101698875E0,4.248456478E0
4.112741915E0,-4.199403822E-1,9.128618240E0,4.382454872E0
4.114982088E0,-4.067798555E-1,9.098708153E0,4.506283283E0
4.117214509E0,-4.085744619E-1,9.059824944E0,4.640281200E0
4.119451387E0,-4.342973232E-1,8.992825508E0,4.778466702E0
4.121687348E0,-5.180460811E-1,8.926424980E0,4.877768993E0
4.123925813E0,-5.784648657E-1,8.807381630E0,5.034498692E0
4.126161775E0,-6.472585201E-1,8.730812073E0,5.182255745E0
4.128398164E0,-6.927221417E-1,8.668598175E0,5.305486202E0
4.130634981E0,-7.567301393E-1,8.621339798E0,5.448457241E0
4.132871736E0,-7.776673436E-1,8.544769287E0,5.529214859E0
4.135108674E0,-7.734799385E-1,8.525029182E0,5.596213818E0
4.137345369E0,-7.692924738E-1,8.501100540E0,5.615356445E0
4.139582307E0,-7.507480979E-1,8.457431793E0,5.644070625E0
4.141821016E0,-7.124629617E-1,8.447860718E0,5.596812248E0
4.144059480E0,-7.220342159E-1,8.424530029E0,5.529813290E0
4.146292207E0,-7.166503668E-1,8.410173416E0,5.453841209E0
4.148529024E0,-6.831508875E-1,8.357531548E0,5.339583874E0
4.150766023E0,-6.921239495E-1,8.310871124E0,5.201398373E0
4.153002412E0,-7.160521746E-1,8.221140862E0,5.010570526E0
4.155239168E0,-7.441678643E-1,8.132007599E0,4.795814991E0
4.157475740E0,-7.579265833E-1,8.051848412E0,4.581058979E0
4.159713838E0,-7.812566161E-1,7.995616913E0,4.362115860E0
4.161949373E0,-7.752745152E-1,7.939385414E0,4.118646145E0
4.164186067E0,-7.980063558E-1,7.874181271E0,3.875774384E0
4.166422762E0,-7.824530005E-1,7.841279984E0,3.651447296E0
4.168659639E0,-8.051848412E-1,7.776075363E0,3.403790236E0
4.170896516E0,-7.471588850E-1,7.652246952E0,3.094517946E0
4.173133272E0,-6.640082598E-1,7.519444942E0,2.618346214E0
4.175370332E0,-7.375875711E-1,7.517650604E0,2.198405743E0
4.177607576E0,-7.854440212E-1,7.362117290E0,1.959721804E0
4.179843172E0,-8.650053740E-1,7.134200573E0,1.864008784E0
4.182079927E0,-9.403793216E-1,6.867401123E0,1.882553220E0
4.184316316E0,-9.870393276E-1,6.643074036E0,1.877767563E0
4.186553499E0,-1.036092162E0,6.543771744E0,1.825125456E0
4.188790498E0,-1.053440213E0,6.573681831E0,1.672582984E0
4.191027070E0,-1.060618639E0,6.641279221E0,1.519442320E0
4.193263948E0,-1.058225870E0,6.761518478E0,1.376471281E0
4.195501619E0,-1.037288666E0,6.804589272E0,1.295115232E0
4.197737276E0,-1.027119160E0,6.880561352E0,1.314257860E0
4.199974153E0,-9.433703423E-1,7.006184578E0,1.849053741E0
4.202210603E0,-7.154539824E-1,7.131209850E0,2.933600664E0
4.204447420E0,-3.792623878E-1,7.161718369E0,3.498904943E0
4.206684053E0,-2.572284266E-2,7.082755089E0,2.925225735E0
4.208920075E0,8.733802289E-2,6.931408882E0,2.235494614E0
4.211154023E0,-2.751746029E-2,6.786045074E0,2.000998020E0
4.213395540E0,-2.273181528E-1,6.620940208E0,2.109273195E0
4.215631257E0,-4.851447940E-1,6.461219311E0,2.297708035E0
4.217868868E0,-7.130611539E-1,6.373282909E0,2.481955290E0
4.220104707E0,-8.638089895E-1,6.307480335E0,2.656631231E0
4.222342439E0,-9.463613629E-1,6.322435856E0,2.813361168E0
4.224578096E0,-9.511470199E-1,6.384050846E0,2.918047190E0
4.226814912E0,-8.979067206E-1,6.445067883E0,2.985644341E0
4.229051668E0,-8.153542876E-1,6.567699909E0,3.086143017E0
4.231289277E0,-7.328019142E-1,6.690331936E0,3.167499065E0
4.233525117E0,-6.843472719E-1,6.794419765E0,3.296711445E0
4.235761934E0,-6.699903607E-1,6.874579430E0,3.406183004E0
4.237998506E0,-6.699903607E-1,6.936194420E0,3.530011654E0
4.240235322E0,-6.658028960E-1,6.973881721E0,3.687339783E0
4.242472078E0,-7.142575383E-1,6.997809887E0,3.815953970E0
4.244708772E0,-7.680960894E-1,7.021738052E0,4.010969162E0
4.246946260E0,-8.081758618E-1,7.025925636E0,4.229912281E0
4.249183259E0,-8.811569214E-1,7.050451756E0,4.386641979E0
4.251418916E0,-9.343972206E-1,7.088737011E0,4.543372154E0
4.253655611E0,-1.020538807E0,7.180262566E0,4.670789719E0
4.255892305E0,-1.153938770E0,7.325028419E0,4.822135925E0
4.258129365E0,-1.286142230E0,7.493722439E0,4.925625324E0
4.260362947E0,-1.403988719E0,7.662416458E0,5.000401020E0
4.262587922E0,-1.532602906E0,7.764709473E0,5.065605640E0
4.264828401E0,-1.656431437E0,7.814360619E0,5.097908497E0
4.267077608E0,-1.762313843E0,7.815557003E0,5.111069202E0
4.269315889E0,-1.868196249E0,7.755138397E0,5.076971531E0
4.271552400E0,-1.912463546E0,7.641479015E0,5.009972572E0
4.273786287E0,-1.908276081E0,7.517650604E0,4.853242397E0
4.276023347E0,-1.866999865E0,7.321439266E0,4.725226402E0
4.278259736E0,-1.820937991E0,7.116254330E0,4.568496704E0
4.280493074E0,-1.770090580E0,6.924828529E0,4.469194412E0
4.282719880E0,-1.733001828E0,6.762116909E0,4.345963955E0
4.284971223E0,-1.694716692E0,6.680760860E0,4.222135544E0
4.287207063E0,-1.698305845E0,6.648457527E0,4.031308174E0
4.289447236E0,-1.725225091E0,6.716054916E0,3.873979807E0
4.291680391E0,-1.828116536E0,6.790232658E0,3.720241070E0
4.293918123E0,-1.930409670E0,6.902695179E0,3.552145243E0
4.296153657E0,-2.057827473E0,6.981658459E0,3.431307554E0
4.298390291E0,-2.199003935E0,7.061219692E0,3.272783279E0
4.300627168E0,-2.283350945E0,7.130013466E0,3.100499868E0
4.302865205E0,-2.391626120E0,7.180262566E0,2.946761131E0
4.305100862E0,-2.432902336E0,7.182057381E0,2.750549555E0
4.307337678E0,-2.513062000E0,7.146164894E0,2.525624275E0
4.309574129E0,-2.555534601E0,7.095317364E0,2.315654039E0
4.311812166E0,-2.616551638E0,7.058826923E0,2.091326952E0
4.314049470E0,-2.667398930E0,7.031907558E0,1.856830359E0
4.316272554E0,-2.767299414E0,6.987041950E0,1.651047587E0
4.318521272E0,-2.846860647E0,7.003193855E0,1.473978758E0
4.320757966E0,-2.960519791E0,7.019943237E0,1.320239902E0
4.322997347E0,-3.030509949E0,7.079165936E0,1.171884894E0
4.325231660E0,-3.095116138E0,7.167101860E0,1.066002488E0
4.327467622E0,-3.174677372E0,7.278368473E0,9.649057388E-1
4.329704866E0,-3.396013498E0,7.473383427E0,8.865407705E-1
4.331941560E0,-3.766302824E0,7.704290867E0,8.303094506E-1
4.334178499E0,-4.107280254E0,7.920242786E0,7.645068169E-1
4.336415498E0,-4.287340164E0,8.075776100E0,7.674978375E-1
4.338652803E0,-4.256831646E0,8.185248375E0,7.866404653E-1
4.340885774E0,-4.169493675E0,8.265407562E0,7.633104324E-1
4.343113923E0,-4.164707661E0,8.298309326E0,8.159525394E-1
4.345361787E0,-4.332803726E0,8.286943436E0,8.237292171E-1
4.347598848E0,-4.587639332E0,8.261219978E0,8.979067206E-1
4.349838533E0,-4.875974178E0,8.236693382E0,1.000199914E0
4.352072481E0,-5.073980331E0,8.196015358E0,1.141376376E0
4.354309358E0,-5.195415974E0,8.178069115E0,1.311864972E0
4.356547090E0,-5.302495003E0,8.178668022E0,1.516451359E0
4.358782625E0,-5.352146149E0,8.168498039E0,1.735394597E0
4.361016267E0,-5.411966801E0,8.158926964E0,1.958525300E0
4.363244050E0,-5.443073273E0,8.100900650E0,2.192423820E0
4.365493806E0,-5.397609711E0,8.056035995E0,2.373680115E0
4.367729463E0,-5.322834015E0,7.996813297E0,2.541775942E0
4.369969209E0,-5.281557560E0,7.962117195E0,2.718246460E0
4.372199983E0,-5.264209747E0,7.922635555E0,2.833101988E0
4.374429414E0,-5.274977684E0,7.898109436E0,2.966501951E0
4.376676423E0,-5.247459888E0,7.883154392E0,3.100499868E0
4.378914461E0,-5.146961689E0,7.928617954E0,3.211168051E0
4.381157990E0,-5.066203594E0,7.945965767E0,3.302095175E0
4.383386445E0,-5.018347263E0,7.997411251E0,3.450450182E0
4.385623506E0,-4.934000492E0,7.985447407E0,3.613162279E0
4.387858674E0,-4.843671322E0,7.993224144E0,3.762115479E0
4.390097200E0,-4.763511658E0,8.009973526E0,3.953541279E0
4.392334627E0,-4.674977303E0,7.936394691E0,4.130609989E0
4.394570222E0,-4.596014023E0,7.852645874E0,4.298706055E0
4.396806856E0,-4.488337040E0,7.755138397E0,4.452444553E0
4.399043611E0,-4.424927235E0,7.638488293E0,4.629513741E0
4.401280488E0,-4.338187218E0,7.392625332E0,4.773681164E0
4.403517366E0,-4.252045631E0,7.131807804E0,4.936991215E0
4.405754121E0,-4.180859566E0,6.843472958E0,5.095515728E0
4.407988314E0,-4.103690624E0,6.626324177E0,5.230112076E0
4.410216951E0,-4.087539196E0,6.529414654E0,5.388038158E0
4.412464082E0,-4.178466320E0,6.606583118E0,5.553741455E0
4.414701143E0,-4.215555191E0,6.754938126E0,5.681757450E0
4.416940583E0,-4.171886444E0,6.911069870E0,5.891727448E0
4.419174531E0,-4.094717979E0,7.066603661E0,6.116652966E0
4.421411043E0,-3.993621111E0,7.250252724E0,6.340980053E0
4.423647859E0,-3.891327858E0,7.453642368E0,6.551548481E0
4.425884980E0,-3.804588079E0,7.622934818E0,6.766902447E0
4.428122529E0,-3.727419376E0,7.740781307E0,6.938587666E0
4.430358125E0,-3.732803345E0,7.792825222E0,7.124629498E0
4.432594942E0,-3.771686792E0,7.840083599E0,7.281359196E0
4.434831758E0,-3.840480328E0,7.826324463E0,7.424330235E0
4.437069612E0,-3.966103554E0,7.794021606E0,7.513463020E0
4.439305391E0,-4.073780537E0,7.704290867E0,7.631907940E0
4.441541902E0,-4.195216179E0,7.629515171E0,7.726424217E0
4.443778535E0,-4.389034748E0,7.540980339E0,7.815557003E0
4.446016450E0,-4.553541660E0,7.438089371E0,7.837690353E0
4.448251863E0,-4.722833633E0,7.344769001E0,7.865208149E0
4.450488740E0,-4.899902344E0,7.361518860E0,7.872984886E0
4.452725252E0,-5.067399979E0,7.378866673E0,7.852047443E0
4.454962434E0,-5.161916733E0,7.451848030E0,7.822735310E0
4.457200350E0,-5.246861935E0,7.525427341E0,7.802396297E0
4.459440401E0,-5.411966801E0,7.657032490E0,7.777271748E0
4.461672822E0,-5.591428280E0,7.813164234E0,7.665407181E0
4.463910371E0,-5.721837044E0,7.974081516E0,7.487740040E0
4.466145051E0,-5.771488190E0,8.070990562E0,7.315456867E0
4.468382722E0,-5.769095421E0,8.148757935E0,7.148557663E0
4.470619051E0,-5.809175014E0,8.240880966E0,6.918846607E0
4.472856111E0,-5.858826160E0,8.343173981E0,6.760920525E0
4.475092927E0,-5.904289722E0,8.454441071E0,6.612565517E0
4.477329561E0,-5.940182209E0,8.489734650E0,6.406782627E0
4.479566682E0,-5.910870075E0,8.418548584E0,6.202196121E0
4.481804414E0,-5.900700569E0,8.318648338E0,5.949753284E0
4.484040071E0,-5.900102615E0,8.243273735E0,5.745167255E0
4.486276887E0,-5.898906231E0,8.225327492E0,5.511268616E0
4.488513399E0,-5.843871117E0,8.263612747E0,5.325825214E0
4.490750459E0,-5.774479389E0,8.321041107E0,5.140381336E0
4.492986970E0,-5.709873199E0,8.392825127E0,4.916652203E0
4.495223482E0,-5.574080467E0,8.367700577E0,4.708476543E0
4.497460359E0,-5.395216942E0,8.323433876E0,4.447659016E0
4.499698213E0,-5.227120876E0,8.283353806E0,4.253840446E0
4.501934053E0,-5.067998409E0,8.205587387E0,4.026522160E0
4.504170686E0,-4.868197441E0,7.993224144E0,3.833301783E0
4.506407442E0,-4.674378872E0,7.704290867E0,3.620938778E0
4.508645173E0,-4.494917393E0,7.425527096E0,3.403790236E0
4.510878572E0,-4.348356724E0,7.170691490E0,3.224328518E0
4.513108552E0,-4.221537113E0,6.967899323E0,3.187838078E0
4.515354158E0,-4.141377926E0,6.894918442E0,3.183650494E0
4.517592012E0,-4.060021877E0,6.926623344E0,3.260818958E0
4.519830049E0,-3.953541279E0,7.101299286E0,3.437887907E0
4.522064424E0,-3.860819340E0,7.342376232E0,3.681357622E0
4.524300935E0,-3.720241070E0,7.640282631E0,3.997210264E0
4.526537813E0,-3.546163082E0,7.932207108E0,4.360321045E0
4.528774873E0,-3.387638569E0,8.176873207E0,4.738387108E0
4.531011445E0,-3.302693367E0,8.298309326E0,5.110470772E0
4.533248567E0,-3.285943747E0,8.295916557E0,5.444868088E0
4.535485994E0,-3.303889751E0,8.284550667E0,5.868995667E0
4.537721651E0,-2.975475073E0,8.037490845E0,7.465008259E0
4.539958406E0,-2.258824587E0,7.816753387E0,1.039023399E1
4.542191499E0,-1.393221021E0,7.999804497E0,1.329691505E1
4.544418855E0,-8.003991842E-1,8.154739380E0,1.496172142E1
4.546668428E0,-8.231309652E-1,8.037490845E0,1.459920883E1
4.548905549E0,-1.186241865E0,7.790432453E0,1.344706535E1
4.551145845E0,-1.627717614E0,7.453044415E0,1.232303619E1
4.553380159E0,-2.119442701E0,7.058826923E0,1.138923740E1
4.555615632E0,-2.690130949E0,6.626324177E0,1.063609695E1
4.557852205E0,-3.191427231E0,6.459424496E0,1.014078236E1
4.560088777E0,-3.537189960E0,6.241079807E0,9.847063065E0
4.562325838E0,-3.961916208E0,5.828916073E0,9.457631111E0
4.564562471E0,-4.364508629E0,5.419145107E0,9.302098274E0
4.566799287E0,-4.716851711E0,4.978865623E0,9.476176262E0
4.569036348E0,-4.989035130E0,4.669593334E0,1.002712345E1
4.571273897E0,-5.020142078E0,4.552345276E0,1.065643597E1
4.573509492E0,-4.826921463E0,4.599603176E0,1.115414238E1
4.575746309E0,-4.567898273E0,4.752145767E0,1.140897846E1
4.577980134E0,-4.296911240E0,4.968098164E0,1.145384407E1
4.580207917E0,-4.018745422E0,5.227120876E0,1.133659554E1
4.582452363E0,-3.791427374E0,5.574678421E0,1.102851963E1
4.584693269E0,-3.639483213E0,5.885147095E0,1.060499001E1
4.586930024E0,-3.632304668E0,6.126224041E0,1.013240719E1
4.589157564E0,-3.806382656E0,6.470790863E0,9.734601021E0
4.591403718E0,-4.186841488E0,6.817151546E0,9.420542717E0
4.593640169E0,-4.591228485E0,7.150352478E0,9.049057007E0
4.595879731E0,-4.992026329E0,7.378268719E0,8.682356834E0
4.598113679E0,-5.283950806E0,7.546962738E0,8.303094864E0
4.600349336E0,-5.496313572E0,7.637889862E0,8.038687706E0
4.602582185E0,-5.594419479E0,7.664210796E0,7.799405575E0
4.604824189E0,-5.660222054E0,7.680362701E0,7.641479015E0
4.607058686E0,-5.663811207E0,7.700103283E0,7.521838188E0
4.609285249E0,-5.615356445E0,7.690532207E0,7.441080093E0
4.611528718E0,-5.561518192E0,7.699504852E0,7.370491982E0
4.613770418E0,-5.571687698E0,7.628318787E0,7.303493023E0
4.616010530E0,-5.630909920E0,7.485945702E0,7.231708050E0
4.618245638E0,-5.688935757E0,7.368099213E0,7.097710133E0
4.620480928E0,-5.742774487E0,7.216753006E0,6.940382004E0
4.622717988E0,-5.748157978E0,7.073781967E0,6.797410965E0
4.624955537E0,-5.536393166E0,7.052246571E0,6.622735023E0
4.627190461E0,-5.174479008E0,7.138986588E0,6.416353703E0
